%time,field.header.seq,field.header.stamp,field.orientation.x,field.orientation.y,field.orientation.z,field.orientation.w,field.orientation_covariance0,field.orientation_covariance1,field.orientation_covariance2,field.orientation_covariance3,field.orientation_covariance4,field.orientation_covariance5,field.orientation_covariance6,field.orientation_covariance7,field.orientation_covariance8,field.angular_velocity.x,field.angular_velocity.y,field.angular_velocity.z,field.angular_velocity_covariance0,field.angular_velocity_covariance1,field.angular_velocity_covariance2,field.angular_velocity_covariance3,field.angular_velocity_covariance4,field.angular_velocity_covariance5,field.angular_velocity_covariance6,field.angular_velocity_covariance7,field.angular_velocity_covariance8,field.linear_acceleration.x,field.linear_acceleration.y,field.linear_acceleration.z,field.linear_acceleration_covariance0,field.linear_acceleration_covariance1,field.linear_acceleration_covariance2,field.linear_acceleration_covariance3,field.linear_acceleration_covariance4,field.linear_acceleration_covariance5,field.linear_acceleration_covariance6,field.linear_acceleration_covariance7,field.linear_acceleration_covariance8
1372687208550067757,4198,1372687208544400105,-0.00202497924576,-0.0440669886587,0.534998409389,0.843700599692,0.0,0.0,0.0,0.0,0.0,0.0,0.0,0.0,0.0,-0.0267090911062,0.00910428129783,0.104098295988,0.0,0.0,0.0,0.0,0.0,0.0,0.0,0.0,0.0,0.62784,-0.572904,9.77076,0.0,0.0,0.0,0.0,0.0,0.0,0.0,0.0,0.0
1372687208643566923,4199,1372687208641479325,-0.00416183144476,-0.0436925048876,0.538846009237,0.841260139615,0.0,0.0,0.0,0.0,0.0,0.0,0.0,0.0,0.0,-0.0303747602152,0.028648844348,0.0985102453762,0.0,0.0,0.0,0.0,0.0,0.0,0.0,0.0,0.0,0.651384,-0.612144,9.778608,0.0,0.0,0.0,0.0,0.0,0.0,0.0,0.0,0.0
1372687208736422878,4200,1372687208739443330,-0.00570760234712,-0.0437128854075,0.542593844859,0.838837604334,0.0,0.0,0.0,0.0,0.0,0.0,0.0,0.0,0.0,-0.024441838329,0.0150333384475,0.0967629647201,0.0,0.0,0.0,0.0,0.0,0.0,0.0,0.0,0.0,0.66708,-0.659232,9.794304,0.0,0.0,0.0,0.0,0.0,0.0,0.0,0.0,0.0
1372687208838392586,4201,1372687208836495165,-0.00724117066944,-0.0439295208236,0.546131212949,0.836515666853,0.0,0.0,0.0,0.0,0.0,0.0,0.0,0.0,0.0,-0.0272317234979,0.011543204263,0.0929214385177,0.0,0.0,0.0,0.0,0.0,0.0,0.0,0.0,0.0,0.643536,-0.643536,9.778608,0.0,0.0,0.0,0.0,0.0,0.0,0.0,0.0,0.0
1372687208939938044,4202,1372687208934468195,-0.00926669415865,-0.0445570942865,0.550341190786,0.833698607083,0.0,0.0,0.0,0.0,0.0,0.0,0.0,0.0,0.0,-0.0366559224293,0.00840191099431,0.100947327537,0.0,0.0,0.0,0.0,0.0,0.0,0.0,0.0,0.0,0.62784,-0.674928,9.802152,0.0,0.0,0.0,0.0,0.0,0.0,0.0,0.0,0.0
1372687209032352721,4203,1372687209031451429,-0.0103382106167,-0.0460754523102,0.554626380121,0.830758540473,0.0,0.0,0.0,0.0,0.0,0.0,0.0,0.0,0.0,-0.0303728524952,-0.0167287047783,0.101646643474,0.0,0.0,0.0,0.0,0.0,0.0,0.0,0.0,0.0,0.596448,-0.714168,9.786456,0.0,0.0,0.0,0.0,0.0,0.0,0.0,0.0,0.0
1372687209133938163,4204,1372687209128754811,-0.0115951908212,-0.0468024011943,0.558810747408,0.827892284886,0.0,0.0,0.0,0.0,0.0,0.0,0.0,0.0,0.0,-0.0249637709444,-0.00171988762456,0.100251549456,0.0,0.0,0.0,0.0,0.0,0.0,0.0,0.0,0.0,0.604296,-0.769104,9.739368,0.0,0.0,0.0,0.0,0.0,0.0,0.0,0.0,0.0
1372687209227675894,4205,1372687209226661389,-0.0132594878998,-0.0464713761495,0.56256711649,0.825338013558,0.0,0.0,0.0,0.0,0.0,0.0,0.0,0.0,0.0,-0.0219965967711,0.0220174804853,0.098155817193,0.0,0.0,0.0,0.0,0.0,0.0,0.0,0.0,0.0,0.565056,-0.792648,9.755064,0.0,0.0,0.0,0.0,0.0,0.0,0.0,0.0,0.0
1372687209329570751,4206,1372687209324455947,-0.015486143699,-0.0452697459377,0.566423781086,0.822724090857,0.0,0.0,0.0,0.0,0.0,0.0,0.0,0.0,0.0,-0.0195542876692,0.0406902292225,0.0932694670124,0.0,0.0,0.0,0.0,0.0,0.0,0.0,0.0,0.0,0.557208,-0.839736,9.762912,0.0,0.0,0.0,0.0,0.0,0.0,0.0,0.0,0.0
1372687209421169290,4207,1372687209422441299,-0.0175988329245,-0.0441314942907,0.569663608415,0.820503543892,0.0,0.0,0.0,0.0,0.0,0.0,0.0,0.0,0.0,-0.0209507177829,0.043308247003,0.0876843337407,0.0,0.0,0.0,0.0,0.0,0.0,0.0,0.0,0.0,0.51012,-0.86328,9.739368,0.0,0.0,0.0,0.0,0.0,0.0,0.0,0.0,0.0
1372687209525155040,4208,1372687209519509660,-0.0192144909368,-0.0428361220294,0.572684245095,0.818430586799,0.0,0.0,0.0,0.0,0.0,0.0,0.0,0.0,0.0,-0.0101282767406,0.039120430939,0.0796548024359,0.0,0.0,0.0,0.0,0.0,0.0,0.0,0.0,0.0,0.455184,-0.855432,9.778608,0.0,0.0,0.0,0.0,0.0,0.0,0.0,0.0,0.0
1372687209629839612,4209,1372687209618367153,-0.0201788114333,-0.0423335828718,0.575683020407,0.816326983105,0.0,0.0,0.0,0.0,0.0,0.0,0.0,0.0,0.0,-0.00751126244198,0.0157307880203,0.0709243350496,0.0,0.0,0.0,0.0,0.0,0.0,0.0,0.0,0.0,0.478728,-0.878976,9.747216,0.0,0.0,0.0,0.0,0.0,0.0,0.0,0.0,0.0
1372687209711629828,4210,1372687209715432312,-0.0200350844075,-0.0424930807551,0.578061840329,0.814639455364,0.0,0.0,0.0,0.0,0.0,0.0,0.0,0.0,0.0,0.00243720414127,-0.00730494873526,0.0632444069714,0.0,0.0,0.0,0.0,0.0,0.0,0.0,0.0,0.0,0.439488,-0.878976,9.762912,0.0,0.0,0.0,0.0,0.0,0.0,0.0,0.0,0.0
1372687209815829201,4211,1372687209813434244,-0.0195548813562,-0.0425958160174,0.580628761244,0.812818211342,0.0,0.0,0.0,0.0,0.0,0.0,0.0,0.0,0.0,0.00819619805926,-0.0094001997847,0.0597562748953,0.0,0.0,0.0,0.0,0.0,0.0,0.0,0.0,0.0,0.455184,-0.886824,9.762912,0.0,0.0,0.0,0.0,0.0,0.0,0.0,0.0,0.0
1372687209917776736,4212,1372687209910476875,-0.0188650109483,-0.0423501800448,0.583128241545,0.811056118604,0.0,0.0,0.0,0.0,0.0,0.0,0.0,0.0,0.0,0.0172728764858,-0.00695787118457,0.0660362438083,0.0,0.0,0.0,0.0,0.0,0.0,0.0,0.0,0.0,0.478728,-0.855432,9.755064,0.0,0.0,0.0,0.0,0.0,0.0,0.0,0.0,0.0
1372687210010520015,4213,1372687210008776247,-0.0179585245547,-0.0423387618318,0.586192862701,0.808865160803,0.0,0.0,0.0,0.0,0.0,0.0,0.0,0.0,0.0,0.0164015147039,-0.0132377834292,0.0723224596288,0.0,0.0,0.0,0.0,0.0,0.0,0.0,0.0,0.0,0.423792,-0.82404,9.794304,0.0,0.0,0.0,0.0,0.0,0.0,0.0,0.0,0.0
1372687210112686110,4214,1372687210106439429,-0.0172318736581,-0.0420365236917,0.589196314173,0.806711656399,0.0,0.0,0.0,0.0,0.0,0.0,0.0,0.0,0.0,0.0188446112131,-0.00695858374084,0.07999608912,0.0,0.0,0.0,0.0,0.0,0.0,0.0,0.0,0.0,0.494424,-0.808344,9.747216,0.0,0.0,0.0,0.0,0.0,0.0,0.0,0.0,0.0
1372687210207536822,4215,1372687210204412405,-0.016191797644,-0.0415864130564,0.592850363522,0.804075147241,0.0,0.0,0.0,0.0,0.0,0.0,0.0,0.0,0.0,0.0233822090973,-0.00835040857852,0.0848882430317,0.0,0.0,0.0,0.0,0.0,0.0,0.0,0.0,0.0,0.408096,-0.800496,9.794304,0.0,0.0,0.0,0.0,0.0,0.0,0.0,0.0,0.0
1372687210300927031,4216,1372687210301509368,-0.0157384333461,-0.0407272646199,0.596183121618,0.801660325282,0.0,0.0,0.0,0.0,0.0,0.0,0.0,0.0,0.0,0.0212864154584,0.00561004391009,0.0876813601293,0.0,0.0,0.0,0.0,0.0,0.0,0.0,0.0,0.0,0.43164,-0.808344,9.794304,0.0,0.0,0.0,0.0,0.0,0.0,0.0,0.0,0.0
1372687210404176836,4217,1372687210399465044,-0.0158570371065,-0.0394866882292,0.599355212755,0.799351415067,0.0,0.0,0.0,0.0,0.0,0.0,0.0,0.0,0.0,0.0160528961993,0.0195736436537,0.0845385792702,0.0,0.0,0.0,0.0,0.0,0.0,0.0,0.0,0.0,0.3924,-0.753408,9.77076,0.0,0.0,0.0,0.0,0.0,0.0,0.0,0.0,0.0
1372687210506492651,4218,1372687210497440824,-0.0157564933455,-0.03815617025,0.603091728489,0.796602916526,0.0,0.0,0.0,0.0,0.0,0.0,0.0,0.0,0.0,0.0195420689576,0.0164290401414,0.0911675232456,0.0,0.0,0.0,0.0,0.0,0.0,0.0,0.0,0.0,0.43164,-0.769104,9.857088,0.0,0.0,0.0,0.0,0.0,0.0,0.0,0.0,0.0
1372687210598362151,4219,1372687210595720188,-0.0162312533092,-0.0366072482094,0.606600433296,0.793997714178,0.0,0.0,0.0,0.0,0.0,0.0,0.0,0.0,0.0,0.0143082192478,0.0296951042867,0.0960562543653,0.0,0.0,0.0,0.0,0.0,0.0,0.0,0.0,0.0,0.368856,-0.722016,9.81,0.0,0.0,0.0,0.0,0.0,0.0,0.0,0.0,0.0
1372687210691559872,4220,1372687210693428988,-0.0165440095147,-0.0351081107213,0.610268183011,0.791243616792,0.0,0.0,0.0,0.0,0.0,0.0,0.0,0.0,0.0,0.0143120933463,0.0237583886426,0.0897675743837,0.0,0.0,0.0,0.0,0.0,0.0,0.0,0.0,0.0,0.3924,-0.635688,9.802152,0.0,0.0,0.0,0.0,0.0,0.0,0.0,0.0,0.0
1372687210795510077,4221,1372687210791438789,-0.0157749362303,-0.0351521812832,0.613562944188,0.788705261208,0.0,0.0,0.0,0.0,0.0,0.0,0.0,0.0,0.0,0.0137882238695,-0.0135918580513,0.0887190177606,0.0,0.0,0.0,0.0,0.0,0.0,0.0,0.0,0.0,0.408096,-0.635688,9.88848,0.0,0.0,0.0,0.0,0.0,0.0,0.0,0.0,0.0
1372687210897375454,4222,1372687210889488284,-0.0144323363662,-0.0362315686326,0.616804624527,0.786149499944,0.0,0.0,0.0,0.0,0.0,0.0,0.0,0.0,0.0,0.00855784401888,-0.0355813666627,0.0803411266212,0.0,0.0,0.0,0.0,0.0,0.0,0.0,0.0,0.0,0.408096,-0.525816,9.841392,0.0,0.0,0.0,0.0,0.0,0.0,0.0,0.0,0.0
1372687210989363914,4223,1372687210987423712,-0.0126102960313,-0.0378323978679,0.620087940057,0.783518115108,0.0,0.0,0.0,0.0,0.0,0.0,0.0,0.0,0.0,0.00977801864155,-0.0491970007206,0.0813865886599,0.0,0.0,0.0,0.0,0.0,0.0,0.0,0.0,0.0,0.494424,-0.54936,9.880632,0.0,0.0,0.0,0.0,0.0,0.0,0.0,0.0,0.0
1372687211091330918,4224,1372687211085423079,-0.0104537670842,-0.0402539883238,0.623402503488,0.780794245511,0.0,0.0,0.0,0.0,0.0,0.0,0.0,0.0,0.0,0.00558828011346,-0.0731098861231,0.0922024797929,0.0,0.0,0.0,0.0,0.0,0.0,0.0,0.0,0.0,0.5886,-0.557208,9.825696,0.0,0.0,0.0,0.0,0.0,0.0,0.0,0.0,0.0
1372687211183450755,4225,1372687211182518816,-0.00762185897621,-0.0440472959947,0.627328598326,0.777470624978,0.0,0.0,0.0,0.0,0.0,0.0,0.0,0.0,0.0,-0.00104359726843,-0.0956234738764,0.0984884181452,0.0,0.0,0.0,0.0,0.0,0.0,0.0,0.0,0.0,0.659232,-0.565056,9.880632,0.0,0.0,0.0,0.0,0.0,0.0,0.0,0.0,0.0
1372687211285799173,4226,1372687211280487883,-0.00443748640263,-0.0478636960491,0.631297114556,0.774049952179,0.0,0.0,0.0,0.0,0.0,0.0,0.0,0.0,0.0,0.00488643352177,-0.111157053914,0.110361039636,0.0,0.0,0.0,0.0,0.0,0.0,0.0,0.0,0.0,0.74556,-0.635688,9.786456,0.0,0.0,0.0,0.0,0.0,0.0,0.0,0.0,0.0
1372687211377572292,4227,1372687211378433446,-0.00052843019099,-0.0528993757666,0.635745263712,0.770083980143,0.0,0.0,0.0,0.0,0.0,0.0,0.0,0.0,0.0,0.000698196644854,-0.129130492755,0.112809770882,0.0,0.0,0.0,0.0,0.0,0.0,0.0,0.0,0.0,0.800496,-0.643536,9.802152,0.0,0.0,0.0,0.0,0.0,0.0,0.0,0.0,0.0
1372687211479805542,4228,1372687211476806605,0.00312588439625,-0.0573851445283,0.639444083837,0.766686661994,0.0,0.0,0.0,0.0,0.0,0.0,0.0,0.0,0.0,0.00314296444355,-0.129479716335,0.104435415022,0.0,0.0,0.0,0.0,0.0,0.0,0.0,0.0,0.0,0.90252,-0.62784,9.707976,0.0,0.0,0.0,0.0,0.0,0.0,0.0,0.0,0.0
1372687211581804776,4229,1372687211573441678,0.00658714435766,-0.0609630218457,0.643708882127,0.762809933448,0.0,0.0,0.0,0.0,0.0,0.0,0.0,0.0,0.0,0.0118708460649,-0.101551012618,0.108109372395,0.0,0.0,0.0,0.0,0.0,0.0,0.0,0.0,0.0,0.926064,-0.619992,9.715824,0.0,0.0,0.0,0.0,0.0,0.0,0.0,0.0,0.0
1372687211673230241,4230,1372687211671480120,0.00831954532365,-0.0625744068867,0.64811693353,0.758920067754,0.0,0.0,0.0,0.0,0.0,0.0,0.0,0.0,0.0,0.0111712933985,-0.0502412867358,0.11247483431,0.0,0.0,0.0,0.0,0.0,0.0,0.0,0.0,0.0,1.02024,-0.651384,9.723672,0.0,0.0,0.0,0.0,0.0,0.0,0.0,0.0,0.0
1372687211765389069,4231,1372687211769445630,0.00808349345172,-0.0616934893969,0.652488726514,0.755239718415,0.0,0.0,0.0,0.0,0.0,0.0,0.0,0.0,0.0,0.015009307584,0.0132922651167,0.121908485428,0.0,0.0,0.0,0.0,0.0,0.0,0.0,0.0,0.0,0.933912,-0.690624,9.739368,0.0,0.0,0.0,0.0,0.0,0.0,0.0,0.0,0.0
1372687211867462463,4232,1372687211867392246,0.00575708531112,-0.0590173805622,0.657226805498,0.751356593699,0.0,0.0,0.0,0.0,0.0,0.0,0.0,0.0,0.0,0.00593484478172,0.0659913626752,0.121200702594,0.0,0.0,0.0,0.0,0.0,0.0,0.0,0.0,0.0,1.051632,-0.659232,9.762912,0.0,0.0,0.0,0.0,0.0,0.0,0.0,0.0,0.0
1372687211969188841,4233,1372687211964470600,0.00389656496875,-0.0564769987488,0.661457009788,0.747843425856,0.0,0.0,0.0,0.0,0.0,0.0,0.0,0.0,0.0,0.011520892742,0.0645993551558,0.120505109364,0.0,0.0,0.0,0.0,0.0,0.0,0.0,0.0,0.0,0.910368,-0.643536,9.723672,0.0,0.0,0.0,0.0,0.0,0.0,0.0,0.0,0.0
1372687212061532984,4234,1372687212062449282,0.00232488322098,-0.0541155745171,0.66596970466,0.744009712294,0.0,0.0,0.0,0.0,0.0,0.0,0.0,0.0,0.0,0.0125680820059,0.0513329369533,0.116311315316,0.0,0.0,0.0,0.0,0.0,0.0,0.0,0.0,0.0,0.894672,-0.635688,9.755064,0.0,0.0,0.0,0.0,0.0,0.0,0.0,0.0,0.0
1372687212164923675,4235,1372687212160421936,0.00250609850507,-0.0534101470835,0.669695704567,0.740708268446,0.0,0.0,0.0,0.0,0.0,0.0,0.0,0.0,0.0,0.0172805751163,0.00594952698249,0.107225435979,0.0,0.0,0.0,0.0,0.0,0.0,0.0,0.0,0.0,0.973152,-0.612144,9.755064,0.0,0.0,0.0,0.0,0.0,0.0,0.0,0.0,0.0
1372687212258794608,4236,1372687212257485997,0.00531719741164,-0.0546128900203,0.674051318398,0.73664372652,0.0,0.0,0.0,0.0,0.0,0.0,0.0,0.0,0.0,0.0289723581469,-0.0565292498614,0.111064738332,0.0,0.0,0.0,0.0,0.0,0.0,0.0,0.0,0.0,0.949608,-0.62784,9.747216,0.0,0.0,0.0,0.0,0.0,0.0,0.0,0.0,0.0
1372687212360741909,4237,1372687212355436506,0.00778219260788,-0.0553960065656,0.677763825197,0.7331486324,0.0,0.0,0.0,0.0,0.0,0.0,0.0,0.0,0.0,0.0328115823824,-0.0526814905,0.106890027261,0.0,0.0,0.0,0.0,0.0,0.0,0.0,0.0,0.0,0.847584,-0.635688,9.77076,0.0,0.0,0.0,0.0,0.0,0.0,0.0,0.0,0.0
1372687212454420576,4238,1372687212452639400,0.00857978276945,-0.0552674973782,0.681494293481,0.729683094921,0.0,0.0,0.0,0.0,0.0,0.0,0.0,0.0,0.0,0.0195443885735,-0.0132372298047,0.10619654162,0.0,0.0,0.0,0.0,0.0,0.0,0.0,0.0,0.0,0.847584,-0.674928,9.73152,0.0,0.0,0.0,0.0,0.0,0.0,0.0,0.0,0.0
1372687212558460860,4239,1372687212551312626,0.0078146340862,-0.0538004890339,0.685597714321,0.725947803214,0.0,0.0,0.0,0.0,0.0,0.0,0.0,0.0,0.0,0.0136106483601,0.0274256149737,0.10584694896,0.0,0.0,0.0,0.0,0.0,0.0,0.0,0.0,0.0,0.878976,-0.66708,9.786456,0.0,0.0,0.0,0.0,0.0,0.0,0.0,0.0,0.0
1372687212651735531,4240,1372687212647456890,0.00701777546585,-0.0527104523231,0.689046232045,0.722763895853,0.0,0.0,0.0,0.0,0.0,0.0,0.0,0.0,0.0,0.00820123165485,0.0258532929472,0.100257658084,0.0,0.0,0.0,0.0,0.0,0.0,0.0,0.0,0.0,0.878976,-0.643536,9.786456,0.0,0.0,0.0,0.0,0.0,0.0,0.0,0.0,0.0
1372687212744550098,4241,1372687212745433717,0.00643612274844,-0.0523130118037,0.692463237517,0.719525253071,0.0,0.0,0.0,0.0,0.0,0.0,0.0,0.0,0.0,0.00121916824883,0.0104969373094,0.0904877016724,0.0,0.0,0.0,0.0,0.0,0.0,0.0,0.0,0.0,0.808344,-0.66708,9.755064,0.0,0.0,0.0,0.0,0.0,0.0,0.0,0.0,0.0
1372687212848658328,4242,1372687212843434918,0.00632744792829,-0.0523306656884,0.695227416756,0.716854450933,0.0,0.0,0.0,0.0,0.0,0.0,0.0,0.0,0.0,0.00122401334286,-0.00102499671801,0.0810568212775,0.0,0.0,0.0,0.0,0.0,0.0,0.0,0.0,0.0,0.86328,-0.5886,9.833544,0.0,0.0,0.0,0.0,0.0,0.0,0.0,0.0,0.0
1372687212940542456,4243,1372687212940483453,0.00570097275875,-0.0519379873394,0.697867070225,0.714318904045,0.0,0.0,0.0,0.0,0.0,0.0,0.0,0.0,0.0,-0.00069589762127,0.0117189707963,0.0709390431657,0.0,0.0,0.0,0.0,0.0,0.0,0.0,0.0,0.0,0.776952,-0.596448,9.723672,0.0,0.0,0.0,0.0,0.0,0.0,0.0,0.0,0.0
1372687213042965505,4244,1372687213038550406,0.00438371370267,-0.0511473829487,0.699991479303,0.712303767487,0.0,0.0,0.0,0.0,0.0,0.0,0.0,0.0,0.0,-0.00593355803479,0.0303907250629,0.0636061300869,0.0,0.0,0.0,0.0,0.0,0.0,0.0,0.0,0.0,0.808344,-0.635688,9.802152,0.0,0.0,0.0,0.0,0.0,0.0,0.0,0.0,0.0
1372687213135775477,4245,1372687213136436594,0.00342560796179,-0.0509225777518,0.702359882831,0.709989965615,0.0,0.0,0.0,0.0,0.0,0.0,0.0,0.0,0.0,-0.00802516012811,0.0143328573139,0.0646479821847,0.0,0.0,0.0,0.0,0.0,0.0,0.0,0.0,0.0,0.808344,-0.5886,9.77076,0.0,0.0,0.0,0.0,0.0,0.0,0.0,0.0,0.0
1372687213237666953,4246,1372687213234863151,0.00400342265482,-0.0519287488515,0.704600944401,0.707689823863,0.0,0.0,0.0,0.0,0.0,0.0,0.0,0.0,0.0,-0.00383599464078,-0.0237167824339,0.0625463901428,0.0,0.0,0.0,0.0,0.0,0.0,0.0,0.0,0.0,0.86328,-0.580752,9.778608,0.0,0.0,0.0,0.0,0.0,0.0,0.0,0.0,0.0
1372687213339507601,4247,1372687213331465879,0.00572853790034,-0.0543760977279,0.706349494174,0.705748408379,0.0,0.0,0.0,0.0,0.0,0.0,0.0,0.0,0.0,-0.00941946884815,-0.0659524862155,0.0548704936907,0.0,0.0,0.0,0.0,0.0,0.0,0.0,0.0,0.0,0.894672,-0.572904,9.762912,0.0,0.0,0.0,0.0,0.0,0.0,0.0,0.0,0.0
1372687213431984632,4248,1372687213429459495,0.00868249445346,-0.0576699169706,0.708487560097,0.703309442674,0.0,0.0,0.0,0.0,0.0,0.0,0.0,0.0,0.0,-0.0024409968499,-0.0882897487276,0.0597608335773,0.0,0.0,0.0,0.0,0.0,0.0,0.0,0.0,0.0,0.918216,-0.635688,9.715824,0.0,0.0,0.0,0.0,0.0,0.0,0.0,0.0,0.0
1372687213525384723,4249,1372687213527443838,0.0122351540757,-0.06084854342,0.710436501647,0.701019067427,0.0,0.0,0.0,0.0,0.0,0.0,0.0,0.0,0.0,0.00768345481052,-0.103999616894,0.0597610602453,0.0,0.0,0.0,0.0,0.0,0.0,0.0,0.0,0.0,1.043784,-0.612144,9.739368,0.0,0.0,0.0,0.0,0.0,0.0,0.0,0.0,0.0
1372687213627610311,4250,1372687213625453905,0.0157189825204,-0.0632971749243,0.712904682532,0.69822152277,0.0,0.0,0.0,0.0,0.0,0.0,0.0,0.0,0.0,0.0172792538437,-0.0847980335938,0.0681446235817,0.0,0.0,0.0,0.0,0.0,0.0,0.0,0.0,0.0,1.05948,-0.674928,9.700128,0.0,0.0,0.0,0.0,0.0,0.0,0.0,0.0,0.0
1372687213730638620,4251,1372687213723423264,0.0180526903079,-0.063926779732,0.715518169359,0.69542880047,0.0,0.0,0.0,0.0,0.0,0.0,0.0,0.0,0.0,0.0293275679762,-0.0484924721548,0.0772294097689,0.0,0.0,0.0,0.0,0.0,0.0,0.0,0.0,0.0,1.043784,-0.580752,9.684432,0.0,0.0,0.0,0.0,0.0,0.0,0.0,0.0,0.0
1372687213835347540,4252,1372687213822053932,0.0178907221957,-0.0615011323337,0.71884440238,0.692214026113,0.0,0.0,0.0,0.0,0.0,0.0,0.0,0.0,0.0,0.0363062983769,0.0319650917866,0.0866557947964,0.0,0.0,0.0,0.0,0.0,0.0,0.0,0.0,0.0,1.043784,-0.604296,9.69228,0.0,0.0,0.0,0.0,0.0,0.0,0.0,0.0,0.0
1372687213918807438,4253,1372687213919456945,0.0172316979444,-0.0581070480488,0.72195818174,0.689277174562,0.0,0.0,0.0,0.0,0.0,0.0,0.0,0.0,0.0,0.04677703224,0.0572674201019,0.0880461386726,0.0,0.0,0.0,0.0,0.0,0.0,0.0,0.0,0.0,1.075176,-0.580752,9.700128,0.0,0.0,0.0,0.0,0.0,0.0,0.0,0.0,0.0
1372687214021230856,4254,1372687214018135463,0.0167628038487,-0.0543627858515,0.725269635254,0.686110524698,0.0,0.0,0.0,0.0,0.0,0.0,0.0,0.0,0.0,0.0568976527242,0.0607589404633,0.0967707348396,0.0,0.0,0.0,0.0,0.0,0.0,0.0,0.0,0.0,1.004544,-0.572904,9.715824,0.0,0.0,0.0,0.0,0.0,0.0,0.0,0.0,0.0
1372687214113045175,4255,1372687214115466656,0.0167174142371,-0.0499831542234,0.728661054837,0.682843524915,0.0,0.0,0.0,0.0,0.0,0.0,0.0,0.0,0.0,0.0663238508531,0.0576162236048,0.0897869527701,0.0,0.0,0.0,0.0,0.0,0.0,0.0,0.0,0.0,0.965304,-0.486576,9.723672,0.0,0.0,0.0,0.0,0.0,0.0,0.0,0.0,0.0
1372687214217116533,4256,1372687214213463639,0.0175037025801,-0.046416784819,0.731863508737,0.679643220419,0.0,0.0,0.0,0.0,0.0,0.0,0.0,0.0,0.0,0.0712108739837,0.0377200895185,0.0932750196437,0.0,0.0,0.0,0.0,0.0,0.0,0.0,0.0,0.0,0.918216,-0.423792,9.723672,0.0,0.0,0.0,0.0,0.0,0.0,0.0,0.0,0.0
1372687214320461865,4257,1372687214311453924,0.0190809247738,-0.0427874600328,0.735429735935,0.675979478296,0.0,0.0,0.0,0.0,0.0,0.0,0.0,0.0,0.0,0.0764478935686,0.02341070811,0.0953701264066,0.0,0.0,0.0,0.0,0.0,0.0,0.0,0.0,0.0,0.847584,-0.337464,9.715824,0.0,0.0,0.0,0.0,0.0,0.0,0.0,0.0,0.0
1372687214413337315,4258,1372687214409930181,0.0203935660567,-0.0387193056236,0.739302512792,0.671949932968,0.0,0.0,0.0,0.0,0.0,0.0,0.0,0.0,0.0,0.0799364479517,0.0326622583482,0.104795066023,0.0,0.0,0.0,0.0,0.0,0.0,0.0,0.0,0.0,0.792648,-0.306072,9.778608,0.0,0.0,0.0,0.0,0.0,0.0,0.0,0.0,0.0
1372687214506981453,4259,1372687214507465943,0.0205320751062,-0.0348137547881,0.743014898479,0.668053363892,0.0,0.0,0.0,0.0,0.0,0.0,0.0,0.0,0.0,0.0685899008644,0.0522099155832,0.112124518026,0.0,0.0,0.0,0.0,0.0,0.0,0.0,0.0,0.0,0.74556,-0.282528,9.817848,0.0,0.0,0.0,0.0,0.0,0.0,0.0,0.0,0.0
1372687214610658746,4260,1372687214606404211,0.0194586710515,-0.0307415551062,0.74676850167,0.664088188288,0.0,0.0,0.0,0.0,0.0,0.0,0.0,0.0,0.0,0.0544521995885,0.0740298636039,0.115268541562,0.0,0.0,0.0,0.0,0.0,0.0,0.0,0.0,0.0,0.619992,-0.251136,9.833544,0.0,0.0,0.0,0.0,0.0,0.0,0.0,0.0,0.0
1372687214704997776,4261,1372687214704435548,0.0159454668763,-0.0254312248471,0.751163264913,0.659433654233,0.0,0.0,0.0,0.0,0.0,0.0,0.0,0.0,0.0,0.0354296678245,0.115914985342,0.121198912788,0.0,0.0,0.0,0.0,0.0,0.0,0.0,0.0,0.0,0.54936,-0.188352,9.81,0.0,0.0,0.0,0.0,0.0,0.0,0.0,0.0,0.0
1372687214809439412,4262,1372687214802467838,0.0120536931655,-0.0210288634808,0.755128668895,0.655128375812,0.0,0.0,0.0,0.0,0.0,0.0,0.0,0.0,0.0,0.0195451192467,0.122891518242,0.124681059454,0.0,0.0,0.0,0.0,0.0,0.0,0.0,0.0,0.0,0.517968,-0.204048,9.84924,0.0,0.0,0.0,0.0,0.0,0.0,0.0,0.0,0.0
1372687214901217731,4263,1372687214900482017,0.00936923671726,-0.0179353956983,0.759108382777,0.650649677001,0.0,0.0,0.0,0.0,0.0,0.0,0.0,0.0,0.0,0.0143086857809,0.0792555625652,0.118739117742,0.0,0.0,0.0,0.0,0.0,0.0,0.0,0.0,0.0,0.486576,-0.1962,9.817848,0.0,0.0,0.0,0.0,0.0,0.0,0.0,0.0,0.0
1372687215004824259,4264,1372687214999401555,0.0091228636776,-0.0168751575967,0.762456072712,0.646755548564,0.0,0.0,0.0,0.0,0.0,0.0,0.0,0.0,0.0,0.0164005478882,0.0181736270882,0.110710758031,0.0,0.0,0.0,0.0,0.0,0.0,0.0,0.0,0.0,0.3924,-0.227592,9.833544,0.0,0.0,0.0,0.0,0.0,0.0,0.0,0.0,0.0
1372687215098288091,4265,1372687215097405703,0.0102455771519,-0.0171943248443,0.765841893273,0.642717338998,0.0,0.0,0.0,0.0,0.0,0.0,0.0,0.0,0.0,0.0115145101228,-0.0212680495824,0.101984752678,0.0,0.0,0.0,0.0,0.0,0.0,0.0,0.0,0.0,0.361008,-0.204048,9.833544,0.0,0.0,0.0,0.0,0.0,0.0,0.0,0.0,0.0
1372687215200799878,4266,1372687215195426680,0.0111608150681,-0.0178019864222,0.768568629342,0.63942222942,0.0,0.0,0.0,0.0,0.0,0.0,0.0,0.0,0.0,0.0048818836566,-0.0244088240945,0.0929119707499,0.0,0.0,0.0,0.0,0.0,0.0,0.0,0.0,0.0,0.368856,-0.211896,9.880632,0.0,0.0,0.0,0.0,0.0,0.0,0.0,0.0,0.0
1372687215292708131,4267,1372687215293432581,0.0119979735757,-0.0188595842571,0.771587285798,0.635730623068,0.0,0.0,0.0,0.0,0.0,0.0,0.0,0.0,0.0,-0.0031466858499,-0.0268497614526,0.0936122785712,0.0,0.0,0.0,0.0,0.0,0.0,0.0,0.0,0.0,0.345312,-0.219744,9.825696,0.0,0.0,0.0,0.0,0.0,0.0,0.0,0.0,0.0
1372687215395774295,4268,1372687215391581901,0.0121608098879,-0.0200445319605,0.774631234134,0.631978466836,0.0,0.0,0.0,0.0,0.0,0.0,0.0,0.0,0.0,-0.0132701559393,-0.0177774128729,0.0946544224823,0.0,0.0,0.0,0.0,0.0,0.0,0.0,0.0,0.0,0.423792,-0.243288,9.802152,0.0,0.0,0.0,0.0,0.0,0.0,0.0,0.0,0.0
1372687215487905808,4269,1372687215489451240,0.0126750735234,-0.0212583106592,0.777334112607,0.62860091005,0.0,0.0,0.0,0.0,0.0,0.0,0.0,0.0,0.0,-0.0111711482532,-0.025809404171,0.0950007936692,0.0,0.0,0.0,0.0,0.0,0.0,0.0,0.0,0.0,0.502272,-0.180504,9.786456,0.0,0.0,0.0,0.0,0.0,0.0,0.0,0.0,0.0
1372687215590654803,4270,1372687215587425614,0.0138098450845,-0.0231286060677,0.780597890153,0.62445279217,0.0,0.0,0.0,0.0,0.0,0.0,0.0,0.0,0.0,-0.011524754888,-0.0404731902042,0.104071293481,0.0,0.0,0.0,0.0,0.0,0.0,0.0,0.0,0.0,0.596448,-0.27468,9.762912,0.0,0.0,0.0,0.0,0.0,0.0,0.0,0.0,0.0
1372687215693548081,4271,1372687215685434807,0.0151325185474,-0.0253083612503,0.784088235362,0.619948492135,0.0,0.0,0.0,0.0,0.0,0.0,0.0,0.0,0.0,-0.0153629134689,-0.0526863885149,0.123972692414,0.0,0.0,0.0,0.0,0.0,0.0,0.0,0.0,0.0,0.572904,-0.27468,9.778608,0.0,0.0,0.0,0.0,0.0,0.0,0.0,0.0,0.0
1372687215786263573,4272,1372687215783421971,0.0159487888754,-0.0267415684661,0.788113970396,0.614741323091,0.0,0.0,0.0,0.0,0.0,0.0,0.0,0.0,0.0,-0.00907851825298,-0.0343600072714,0.142478044669,0.0,0.0,0.0,0.0,0.0,0.0,0.0,0.0,0.0,0.5886,-0.27468,9.73152,0.0,0.0,0.0,0.0,0.0,0.0,0.0,0.0,0.0
1372687215889277750,4273,1372687215881440601,0.0152048941053,-0.0264901225152,0.793058185958,0.608379649799,0.0,0.0,0.0,0.0,0.0,0.0,0.0,0.0,0.0,-0.000350040181095,0.012763242556,0.157139320361,0.0,0.0,0.0,0.0,0.0,0.0,0.0,0.0,0.0,0.580752,-0.251136,9.69228,0.0,0.0,0.0,0.0,0.0,0.0,0.0,0.0,0.0
1372687215981236895,4274,1372687215978396235,0.0140383165279,-0.0260029139093,0.797813539713,0.602179649264,0.0,0.0,0.0,0.0,0.0,0.0,0.0,0.0,0.0,-0.00209521625378,0.0251506238193,0.171446354101,0.0,0.0,0.0,0.0,0.0,0.0,0.0,0.0,0.0,0.635688,-0.258984,9.81,0.0,0.0,0.0,0.0,0.0,0.0,0.0,0.0,0.0
1372687216084382700,4275,1372687216076810131,0.0131146491774,-0.0254876450225,0.803231246354,0.594977269153,0.0,0.0,0.0,0.0,0.0,0.0,0.0,0.0,0.0,0.00209270787401,0.0186924596285,0.175983023555,0.0,0.0,0.0,0.0,0.0,0.0,0.0,0.0,0.0,0.619992,-0.282528,9.802152,0.0,0.0,0.0,0.0,0.0,0.0,0.0,0.0,0.0
1372687216177265639,4276,1372687216174425322,0.0118984997443,-0.0248813885087,0.808201015656,0.588260537944,0.0,0.0,0.0,0.0,0.0,0.0,0.0,0.0,0.0,-0.000349410030634,0.0267257985247,0.181224634059,0.0,0.0,0.0,0.0,0.0,0.0,0.0,0.0,0.0,0.51012,-0.27468,9.817848,0.0,0.0,0.0,0.0,0.0,0.0,0.0,0.0,0.0
1372687216279764201,4277,1372687216272456177,0.00986775554499,-0.0243364349833,0.813345086228,0.581188554638,0.0,0.0,0.0,0.0,0.0,0.0,0.0,0.0,0.0,-0.0104722427967,0.0361509483574,0.172146828416,0.0,0.0,0.0,0.0,0.0,0.0,0.0,0.0,0.0,0.463032,-0.290376,9.817848,0.0,0.0,0.0,0.0,0.0,0.0,0.0,0.0,0.0
1372687216372078995,4278,1372687216370423281,0.00796767909696,-0.0242844427924,0.817800740484,0.574933675124,0.0,0.0,0.0,0.0,0.0,0.0,0.0,0.0,0.0,-0.019198566454,0.0319609188331,0.167956111199,0.0,0.0,0.0,0.0,0.0,0.0,0.0,0.0,0.0,0.447336,-0.306072,9.747216,0.0,0.0,0.0,0.0,0.0,0.0,0.0,0.0,0.0
1372687216476292444,4279,1372687216468683563,0.00617530905773,-0.0249291631743,0.82247097294,0.568226980223,0.0,0.0,0.0,0.0,0.0,0.0,0.0,0.0,0.0,-0.0268755627844,0.0185253339922,0.158534250261,0.0,0.0,0.0,0.0,0.0,0.0,0.0,0.0,0.0,0.361008,-0.298224,9.802152,0.0,0.0,0.0,0.0,0.0,0.0,0.0,0.0,0.0
1372687216570039113,4280,1372687216566393339,0.00545606950382,-0.0262320231216,0.8263842409,0.562468842391,0.0,0.0,0.0,0.0,0.0,0.0,0.0,0.0,0.0,-0.0286242206498,-0.00556327844171,0.15015276212,0.0,0.0,0.0,0.0,0.0,0.0,0.0,0.0,0.0,0.415944,-0.384552,9.841392,0.0,0.0,0.0,0.0,0.0,0.0,0.0,0.0,0.0
1372687216663357141,4281,1372687216664435885,0.00501788580003,-0.027769621744,0.830003887954,0.557043279209,0.0,0.0,0.0,0.0,0.0,0.0,0.0,0.0,0.0,-0.026705196487,-0.0121927410386,0.127116069068,0.0,0.0,0.0,0.0,0.0,0.0,0.0,0.0,0.0,0.368856,-0.43164,9.802152,0.0,0.0,0.0,0.0,0.0,0.0,0.0,0.0,0.0
1372687216767770619,4282,1372687216762713956,0.00467144501584,-0.0295264992099,0.833225084081,0.552125278088,0.0,0.0,0.0,0.0,0.0,0.0,0.0,0.0,0.0,-0.0324640179991,-0.0174278274841,0.125549325089,0.0,0.0,0.0,0.0,0.0,0.0,0.0,0.0,0.0,0.361008,-0.455184,9.786456,0.0,0.0,0.0,0.0,0.0,0.0,0.0,0.0,0.0
1372687216859787887,4283,1372687216860459799,0.00392656512119,-0.0314276121792,0.836502919859,0.547046389574,0.0,0.0,0.0,0.0,0.0,0.0,0.0,0.0,0.0,-0.0366518553477,-0.0111455781861,0.119439314877,0.0,0.0,0.0,0.0,0.0,0.0,0.0,0.0,0.0,0.384552,-0.478728,9.786456,0.0,0.0,0.0,0.0,0.0,0.0,0.0,0.0,0.0
1372687216962469414,4284,1372687216958609436,0.00239929225397,-0.0323022747319,0.839449596073,0.542471365232,0.0,0.0,0.0,0.0,0.0,0.0,0.0,0.0,0.0,-0.0314161659198,0.0139904921989,0.11874751427,0.0,0.0,0.0,0.0,0.0,0.0,0.0,0.0,0.0,0.306072,-0.517968,9.77076,0.0,0.0,0.0,0.0,0.0,0.0,0.0,0.0,0.0
1372687217057310406,4285,1372687217056465443,-1.34573096085e-05,-0.0329575841376,0.842125857498,0.538273014,0.0,0.0,0.0,0.0,0.0,0.0,0.0,0.0,0.0,-0.0373504267545,0.0324889444603,0.10757570781,0.0,0.0,0.0,0.0,0.0,0.0,0.0,0.0,0.0,0.306072,-0.557208,9.77076,0.0,0.0,0.0,0.0,0.0,0.0,0.0,0.0,0.0
1372687217161910689,4286,1372687217155410846,-0.00170443668786,-0.0336601611049,0.844622187636,0.534300897064,0.0,0.0,0.0,0.0,0.0,0.0,0.0,0.0,0.0,-0.0268788516771,0.0171306142984,0.0904703047009,0.0,0.0,0.0,0.0,0.0,0.0,0.0,0.0,0.0,0.27468,-0.596448,9.802152,0.0,0.0,0.0,0.0,0.0,0.0,0.0,0.0,0.0
1372687217254500583,4287,1372687217253399664,-0.00310097467551,-0.0343038759895,0.846755824488,0.530865521337,0.0,0.0,0.0,0.0,0.0,0.0,0.0,0.0,0.0,-0.0261817896722,0.0153827562214,0.0887222708473,0.0,0.0,0.0,0.0,0.0,0.0,0.0,0.0,0.0,0.298224,-0.635688,9.747216,0.0,0.0,0.0,0.0,0.0,0.0,0.0,0.0,0.0
1372687217357670157,4288,1372687217351714869,-0.00444063639695,-0.0349714013379,0.848907711147,0.527364181371,0.0,0.0,0.0,0.0,0.0,0.0,0.0,0.0,0.0,-0.0233888796855,0.012245203158,0.0806975440888,0.0,0.0,0.0,0.0,0.0,0.0,0.0,0.0,0.0,0.204048,-0.659232,9.802152,0.0,0.0,0.0,0.0,0.0,0.0,0.0,0.0,0.0
1372687217450078711,4289,1372687217449481232,-0.00592889199479,-0.0353636093006,0.850866622604,0.524156707403,0.0,0.0,0.0,0.0,0.0,0.0,0.0,0.0,0.0,-0.0205961536492,0.0181752794199,0.0747588958377,0.0,0.0,0.0,0.0,0.0,0.0,0.0,0.0,0.0,0.258984,-0.674928,9.778608,0.0,0.0,0.0,0.0,0.0,0.0,0.0,0.0,0.0
1372687217552849117,4290,1372687217547455921,-0.00739062676883,-0.0354555164421,0.852571505244,0.5213541152,0.0,0.0,0.0,0.0,0.0,0.0,0.0,0.0,0.0,-0.0171058090411,0.023065543493,0.0719718191901,0.0,0.0,0.0,0.0,0.0,0.0,0.0,0.0,0.0,0.172656,-0.698472,9.778608,0.0,0.0,0.0,0.0,0.0,0.0,0.0,0.0,0.0
1372687217646892999,4291,1372687217645066646,-0.00958736094099,-0.0355086201953,0.854381247414,0.518343423291,0.0,0.0,0.0,0.0,0.0,0.0,0.0,0.0,0.0,-0.0219918337084,0.0331842058075,0.069522842688,0.0,0.0,0.0,0.0,0.0,0.0,0.0,0.0,0.0,0.219744,-0.70632,9.81,0.0,0.0,0.0,0.0,0.0,0.0,0.0,0.0,0.0
1372687217739823230,4292,1372687217743442761,-0.0111831131228,-0.0355321463533,0.855956436416,0.515704356696,0.0,0.0,0.0,0.0,0.0,0.0,0.0,0.0,0.0,-0.0174544549913,0.0267272125203,0.0681251022843,0.0,0.0,0.0,0.0,0.0,0.0,0.0,0.0,0.0,0.180504,-0.729864,9.794304,0.0,0.0,0.0,0.0,0.0,0.0,0.0,0.0,0.0
1372687217841943121,4293,1372687217842420547,-0.0127099366983,-0.0360961610798,0.857869594038,0.512440517805,0.0,0.0,0.0,0.0,0.0,0.0,0.0,0.0,0.0,-0.0240874320712,0.017473907312,0.0761487390663,0.0,0.0,0.0,0.0,0.0,0.0,0.0,0.0,0.0,0.219744,-0.769104,9.817848,0.0,0.0,0.0,0.0,0.0,0.0,0.0,0.0,0.0
1372687217945588712,4294,1372687217940423288,-0.0141269600597,-0.0367843446619,0.859674487701,0.509320249139,0.0,0.0,0.0,0.0,0.0,0.0,0.0,0.0,0.0,-0.0275765606648,0.0157299103332,0.0789447298882,0.0,0.0,0.0,0.0,0.0,0.0,0.0,0.0,0.0,0.172656,-0.769104,9.786456,0.0,0.0,0.0,0.0,0.0,0.0,0.0,0.0,0.0
1372687218037482126,4295,1372687218038426453,-0.0147016796307,-0.0383400535728,0.861934972236,0.505353346229,0.0,0.0,0.0,0.0,0.0,0.0,0.0,0.0,0.0,-0.0314156689864,-0.00905517378124,0.0904613767153,0.0,0.0,0.0,0.0,0.0,0.0,0.0,0.0,0.0,0.204048,-0.792648,9.81,0.0,0.0,0.0,0.0,0.0,0.0,0.0,0.0,0.0
1372687218139639387,4296,1372687218136457315,-0.0137633118833,-0.0402783377051,0.864167471197,0.501400846113,0.0,0.0,0.0,0.0,0.0,0.0,0.0,0.0,0.0,-0.0253080229068,-0.0425654085083,0.0984882260402,0.0,0.0,0.0,0.0,0.0,0.0,0.0,0.0,0.0,0.23544,-0.831888,9.786456,0.0,0.0,0.0,0.0,0.0,0.0,0.0,0.0,0.0
1372687218242021716,4297,1372687218234482494,-0.0119306172994,-0.0425279298632,0.866806911014,0.496683817504,0.0,0.0,0.0,0.0,0.0,0.0,0.0,0.0,0.0,-0.0191986380791,-0.0575705237331,0.104079884236,0.0,0.0,0.0,0.0,0.0,0.0,0.0,0.0,0.0,0.188352,-0.839736,9.755064,0.0,0.0,0.0,0.0,0.0,0.0,0.0,0.0,0.0
1372687218334630858,4298,1372687218333395680,-0.0113221336565,-0.0435576230943,0.869526284865,0.491831864247,0.0,0.0,0.0,0.0,0.0,0.0,0.0,0.0,0.0,-0.0101253857683,-0.0251067231476,0.107921184569,0.0,0.0,0.0,0.0,0.0,0.0,0.0,0.0,0.0,0.188352,-0.894672,9.723672,0.0,0.0,0.0,0.0,0.0,0.0,0.0,0.0,0.0
1372687218436541949,4299,1372687218431472782,-0.011644536737,-0.0441968764084,0.87227450831,0.486875983217,0.0,0.0,0.0,0.0,0.0,0.0,0.0,0.0,0.0,-0.0139643681776,-0.00591324541234,0.124322788078,0.0,0.0,0.0,0.0,0.0,0.0,0.0,0.0,0.0,0.27468,-0.90252,9.786456,0.0,0.0,0.0,0.0,0.0,0.0,0.0,0.0,0.0
1372687218530536556,4300,1372687218529392646,-0.0127022522151,-0.0446397945458,0.875513462899,0.480959580228,0.0,0.0,0.0,0.0,0.0,0.0,0.0,0.0,0.0,-0.0158824442939,0.007703795509,0.130611910449,0.0,0.0,0.0,0.0,0.0,0.0,0.0,0.0,0.0,0.180504,-0.886824,9.747216,0.0,0.0,0.0,0.0,0.0,0.0,0.0,0.0,0.0
1372687218633801058,4301,1372687218627413486,-0.0143081193834,-0.044357863825,0.87834972319,0.475740918368,0.0,0.0,0.0,0.0,0.0,0.0,0.0,0.0,0.0,-0.00977593199135,0.0272505517837,0.1295617455,0.0,0.0,0.0,0.0,0.0,0.0,0.0,0.0,0.0,0.164808,-0.933912,9.762912,0.0,0.0,0.0,0.0,0.0,0.0,0.0,0.0,0.0
1372687218726848172,4302,1372687218725414802,-0.0153625567358,-0.0443200661566,0.881413452344,0.470010690957,0.0,0.0,0.0,0.0,0.0,0.0,0.0,0.0,0.0,-0.00802861693523,0.0125884453591,0.127292919264,0.0,0.0,0.0,0.0,0.0,0.0,0.0,0.0,0.0,0.164808,-0.910368,9.786456,0.0,0.0,0.0,0.0,0.0,0.0,0.0,0.0,0.0
1372687218830068775,4303,1372687218823814110,-0.0151445559512,-0.0444880973155,0.884014393628,0.465091392611,0.0,0.0,0.0,0.0,0.0,0.0,0.0,0.0,0.0,-0.00017403810876,-0.0118401597415,0.119441874743,0.0,0.0,0.0,0.0,0.0,0.0,0.0,0.0,0.0,0.062784,-0.90252,9.794304,0.0,0.0,0.0,0.0,0.0,0.0,0.0,0.0,0.0
1372687218923491452,4304,1372687218921443414,-0.0163842453332,-0.0444128992764,0.886681305426,0.459951425142,0.0,0.0,0.0,0.0,0.0,0.0,0.0,0.0,0.0,-0.00890298092235,0.0164318520754,0.113157872857,0.0,0.0,0.0,0.0,0.0,0.0,0.0,0.0,0.0,0.07848,-0.949608,9.739368,0.0,0.0,0.0,0.0,0.0,0.0,0.0,0.0,0.0
1372687219026303548,4305,1372687219019503005,-0.0186385211162,-0.0437318248806,0.889041303928,0.455352273447,0.0,0.0,0.0,0.0,0.0,0.0,0.0,0.0,0.0,-0.00838109842179,0.0440123303439,0.1138595879,0.0,0.0,0.0,0.0,0.0,0.0,0.0,0.0,0.0,-0.047088,-0.988848,9.778608,0.0,0.0,0.0,0.0,0.0,0.0,0.0,0.0,0.0
1372687219120844824,4306,1372687219117434553,-0.0226914098527,-0.0424380325995,0.89147987135,0.450497227834,0.0,0.0,0.0,0.0,0.0,0.0,0.0,0.0,0.0,-0.0129165070079,0.0750743516346,0.107922009041,0.0,0.0,0.0,0.0,0.0,0.0,0.0,0.0,0.0,-0.03924,-0.957456,9.786456,0.0,0.0,0.0,0.0,0.0,0.0,0.0,0.0,0.0
1372687219225939603,4307,1372687219215429816,-0.0252991348471,-0.0417662874397,0.893358856384,0.446682756248,0.0,0.0,0.0,0.0,0.0,0.0,0.0,0.0,0.0,-0.0125657505512,0.0520328880453,0.0943056094445,0.0,0.0,0.0,0.0,0.0,0.0,0.0,0.0,0.0,-0.03924,-0.94176,9.794304,0.0,0.0,0.0,0.0,0.0,0.0,0.0,0.0,0.0
1372687219318516720,4308,1372687219313424597,-0.0266409873662,-0.0415437427429,0.895318886081,0.442683258615,0.0,0.0,0.0,0.0,0.0,0.0,0.0,0.0,0.0,-0.00890173335139,0.0227157919576,0.0960551949699,0.0,0.0,0.0,0.0,0.0,0.0,0.0,0.0,0.0,-0.149112,-0.965304,9.77076,0.0,0.0,0.0,0.0,0.0,0.0,0.0,0.0,0.0
1372687219411303378,4309,1372687219411410595,-0.0279678106096,-0.0416863569365,0.897211455497,0.438738707365,0.0,0.0,0.0,0.0,0.0,0.0,0.0,0.0,0.0,-0.0143132085229,0.0178248849514,0.0866252855674,0.0,0.0,0.0,0.0,0.0,0.0,0.0,0.0,0.0,-0.094176,-0.996696,9.762912,0.0,0.0,0.0,0.0,0.0,0.0,0.0,0.0,0.0
1372687219513384698,4310,1372687219509464413,-0.0281170202841,-0.0419805688091,0.898860644676,0.435312079392,0.0,0.0,0.0,0.0,0.0,0.0,0.0,0.0,0.0,-0.00750783887463,-0.00399028377993,0.083481174426,0.0,0.0,0.0,0.0,0.0,0.0,0.0,0.0,0.0,-0.11772,-1.028088,9.778608,0.0,0.0,0.0,0.0,0.0,0.0,0.0,0.0,0.0
1372687219608572691,4311,1372687219607470719,-0.0279490755176,-0.0426727090652,0.900686418082,0.431464790408,0.0,0.0,0.0,0.0,0.0,0.0,0.0,0.0,0.0,-0.0108239910851,-0.0127160351145,0.0810396325603,0.0,0.0,0.0,0.0,0.0,0.0,0.0,0.0,0.0,-0.133416,-1.035936,9.755064,0.0,0.0,0.0,0.0,0.0,0.0,0.0,0.0,0.0
1372687219711069547,4312,1372687219705468469,-0.0274295489758,-0.0436616258028,0.902204404997,0.428215475993,0.0,0.0,0.0,0.0,0.0,0.0,0.0,0.0,0.0,-0.0146647637763,-0.0233627979644,0.077200895891,0.0,0.0,0.0,0.0,0.0,0.0,0.0,0.0,0.0,-0.11772,-1.067328,9.77076,0.0,0.0,0.0,0.0,0.0,0.0,0.0,0.0,0.0
1372687219814420059,4313,1372687219804401390,-0.0293223173445,-0.0415510068787,0.903906897052,0.424695228363,0.0,0.0,0.0,0.0,0.0,0.0,0.0,0.0,0.0,0.0202504332034,0.0481782130362,0.0796366520583,0.0,0.0,0.0,0.0,0.0,0.0,0.0,0.0,0.0,0.15696,-0.886824,9.755064,0.0,0.0,0.0,0.0,0.0,0.0,0.0,0.0,0.0
1372687219907919065,4314,1372687219902454411,-0.0415219743399,-0.0338656150766,0.905203735353,0.421586578611,0.0,0.0,0.0,0.0,0.0,0.0,0.0,0.0,0.0,0.0376771058175,0.300266515928,0.0856319344717,0.0,0.0,0.0,0.0,0.0,0.0,0.0,0.0,0.0,-1.185048,-1.083024,9.009504,0.0,0.0,0.0,0.0,0.0,0.0,0.0,0.0,0.0
1372687220009457239,4315,1372687220001428595,-0.0552172987848,-0.0268908551063,0.906204617713,0.418355258916,0.0,0.0,0.0,0.0,0.0,0.0,0.0,0.0,0.0,0.00906374779383,0.299517360346,0.0810492486557,0.0,0.0,0.0,0.0,0.0,0.0,0.0,0.0,0.0,-0.5886,-1.028088,9.817848,0.0,0.0,0.0,0.0,0.0,0.0,0.0,0.0,0.0
1372687220101983344,4316,1372687220100396741,-0.0624759335619,-0.0223430367129,0.907116589212,0.415616457822,0.0,0.0,0.0,0.0,0.0,0.0,0.0,0.0,0.0,0.0209315803165,0.18152588588,0.0729942277738,0.0,0.0,0.0,0.0,0.0,0.0,0.0,0.0,0.0,-0.604296,-1.051632,9.943416,0.0,0.0,0.0,0.0,0.0,0.0,0.0,0.0,0.0
1372687220205918869,4317,1372687220198483664,-0.066662144305,-0.0194197939048,0.90798780174,0.413203560018,0.0,0.0,0.0,0.0,0.0,0.0,0.0,0.0,0.0,0.0155201201061,0.0956609658696,0.0569392216076,0.0,0.0,0.0,0.0,0.0,0.0,0.0,0.0,0.0,-0.7848,-1.012392,9.6138,0.0,0.0,0.0,0.0,0.0,0.0,0.0,0.0,0.0
1372687220298183642,4318,1372687220297631328,-0.0654812124244,-0.0193566529744,0.908891910855,0.411403725296,0.0,0.0,0.0,0.0,0.0,0.0,0.0,0.0,0.0,0.00906226214428,-0.0216209124895,0.0419200600775,0.0,0.0,0.0,0.0,0.0,0.0,0.0,0.0,0.0,-0.847584,-1.043784,9.864936,0.0,0.0,0.0,0.0,0.0,0.0,0.0,0.0,0.0
1372687220400349543,4319,1372687220395435094,-0.0614740325101,-0.0211700707017,0.909748884748,0.410036264412,0.0,0.0,0.0,0.0,0.0,0.0,0.0,0.0,0.0,-0.00106072223819,-0.097017992924,0.0340665059213,0.0,0.0,0.0,0.0,0.0,0.0,0.0,0.0,0.0,-0.776952,-1.035936,9.802152,0.0,0.0,0.0,0.0,0.0,0.0,0.0,0.0,0.0
1372687220492699271,4320,1372687220493454062,-0.0543852127721,-0.0243908017491,0.910697168201,0.408751764831,0.0,0.0,0.0,0.0,0.0,0.0,0.0,0.0,0.0,-0.00106099000418,-0.152688693875,0.0258719513987,0.0,0.0,0.0,0.0,0.0,0.0,0.0,0.0,0.0,-0.737712,-1.028088,9.802152,0.0,0.0,0.0,0.0,0.0,0.0,0.0,0.0,0.0
1372687220596521792,4321,1372687220591475467,-0.0453977557115,-0.0290262500128,0.911492791707,0.407771273207,0.0,0.0,0.0,0.0,0.0,0.0,0.0,0.0,0.0,-0.0118809768336,-0.216049706243,0.0188863649504,0.0,0.0,0.0,0.0,0.0,0.0,0.0,0.0,0.0,-0.439488,-1.02024,9.778608,0.0,0.0,0.0,0.0,0.0,0.0,0.0,0.0,0.0
1372687220689891089,4322,1372687220690543138,-0.0316760982537,-0.0357526901864,0.912580503304,0.406097518993,0.0,0.0,0.0,0.0,0.0,0.0,0.0,0.0,0.0,-0.010831699103,-0.296678476902,0.0262265447289,0.0,0.0,0.0,0.0,0.0,0.0,0.0,0.0,0.0,-0.258984,-0.988848,9.794304,0.0,0.0,0.0,0.0,0.0,0.0,0.0,0.0,0.0
1372687220792356553,4323,1372687220788515671,-0.017638522104,-0.0427510972214,0.91334759232,0.404545920541,0.0,0.0,0.0,0.0,0.0,0.0,0.0,0.0,0.0,-0.0150184798761,-0.341355591393,0.0227467120861,0.0,0.0,0.0,0.0,0.0,0.0,0.0,0.0,0.0,-0.023544,-0.965304,9.755064,0.0,0.0,0.0,0.0,0.0,0.0,0.0,0.0,0.0
1372687220885017550,4324,1372687220886449678,-0.00533742421232,-0.0476743482799,0.914046707599,0.402762069647,0.0,0.0,0.0,0.0,0.0,0.0,0.0,0.0,0.0,0.00941676855639,-0.25949076232,0.0248598963417,0.0,0.0,0.0,0.0,0.0,0.0,0.0,0.0,0.0,0.03924,-0.90252,9.307728,0.0,0.0,0.0,0.0,0.0,0.0,0.0,0.0,0.0
1372687220987911981,4325,1372687220984450722,0.00609590504404,-0.0529143257826,0.914687784642,0.400635957816,0.0,0.0,0.0,0.0,0.0,0.0,0.0,0.0,0.0,-0.00384201222922,-0.273634013731,0.0332479846028,0.0,0.0,0.0,0.0,0.0,0.0,0.0,0.0,0.0,0.376704,-0.878976,9.919872,0.0,0.0,0.0,0.0,0.0,0.0,0.0,0.0,0.0
1372687221089504219,4326,1372687221082449592,0.014551057528,-0.05581819187,0.915492349545,0.398178796656,0.0,0.0,0.0,0.0,0.0,0.0,0.0,0.0,0.0,0.0150101210786,-0.177992649015,0.0398866409535,0.0,0.0,0.0,0.0,0.0,0.0,0.0,0.0,0.0,0.572904,-0.800496,9.598104,0.0,0.0,0.0,0.0,0.0,0.0,0.0,0.0,0.0
1372687221182040173,4327,1372687221180481643,0.0171408258087,-0.0562200790647,0.916113840307,0.39658659382,0.0,0.0,0.0,0.0,0.0,0.0,0.0,0.0,0.0,0.0150162297638,-0.0565205355201,0.0322167531497,0.0,0.0,0.0,0.0,0.0,0.0,0.0,0.0,0.0,0.651384,-0.698472,9.551016,0.0,0.0,0.0,0.0,0.0,0.0,0.0,0.0,0.0
1372687221284274392,4328,1372687221279383075,0.0169035533253,-0.0540519133217,0.916860701908,0.3951697279,0.0,0.0,0.0,0.0,0.0,0.0,0.0,0.0,0.0,0.0377006811034,0.0195763924019,0.0276795680569,0.0,0.0,0.0,0.0,0.0,0.0,0.0,0.0,0.0,0.635688,-0.769104,9.802152,0.0,0.0,0.0,0.0,0.0,0.0,0.0,0.0,0.0
1372687221377006482,4329,1372687221377402487,0.0121808164556,-0.0494847229576,0.917493433297,0.394472673021,0.0,0.0,0.0,0.0,0.0,0.0,0.0,0.0,0.0,0.046071475466,0.119055067934,0.0180765966936,0.0,0.0,0.0,0.0,0.0,0.0,0.0,0.0,0.0,0.604296,-0.831888,9.668736,0.0,0.0,0.0,0.0,0.0,0.0,0.0,0.0,0.0
1372687221483575947,4330,1372687221475913707,0.00705421226591,-0.0453714675051,0.91793998886,0.394053099059,0.0,0.0,0.0,0.0,0.0,0.0,0.0,0.0,0.0,0.0387376367641,0.136852045363,0.0144017096504,0.0,0.0,0.0,0.0,0.0,0.0,0.0,0.0,0.0,0.5886,-0.855432,9.794304,0.0,0.0,0.0,0.0,0.0,0.0,0.0,0.0,0.0
1372687221576299604,4331,1372687221574387136,0.00152805950287,-0.040723761263,0.918334086995,0.393702609803,0.0,0.0,0.0,0.0,0.0,0.0,0.0,0.0,0.0,0.0397865968065,0.130044962343,0.0116050821842,0.0,0.0,0.0,0.0,0.0,0.0,0.0,0.0,0.0,0.463032,-0.776952,9.794304,0.0,0.0,0.0,0.0,0.0,0.0,0.0,0.0,0.0
1372687221678993682,4332,1372687221672424991,-0.00173255957973,-0.0370999170463,0.918469192569,0.393744760847,0.0,0.0,0.0,0.0,0.0,0.0,0.0,0.0,0.0,0.0446721438937,0.09636042829,0.0014813903743,0.0,0.0,0.0,0.0,0.0,0.0,0.0,0.0,0.0,0.368856,-0.753408,9.73152,0.0,0.0,0.0,0.0,0.0,0.0,0.0,0.0,0.0
1372687221772332850,4333,1372687221770445674,-0.00383514619359,-0.0335878765936,0.918583826194,0.393777729759,0.0,0.0,0.0,0.0,0.0,0.0,0.0,0.0,0.0,0.0471114003162,0.0649421686452,0.00181585202476,0.0,0.0,0.0,0.0,0.0,0.0,0.0,0.0,0.0,0.368856,-0.776952,9.786456,0.0,0.0,0.0,0.0,0.0,0.0,0.0,0.0,0.0
1372687221865031039,4334,1372687221868511950,-0.00392404685157,-0.0312911614053,0.918629666864,0.39385911216,0.0,0.0,0.0,0.0,0.0,0.0,0.0,0.0,0.0,0.0453684441188,0.0220104631138,-0.0013229910954,0.0,0.0,0.0,0.0,0.0,0.0,0.0,0.0,0.0,0.290376,-0.698472,9.794304,0.0,0.0,0.0,0.0,0.0,0.0,0.0,0.0,0.0
1372687221969357788,4335,1372687221967379976,-0.00291550706842,-0.0294340890775,0.918806335466,0.393598846703,0.0,0.0,0.0,0.0,0.0,0.0,0.0,0.0,0.0,0.040831442995,-0.00346955709902,0.00496213897281,0.0,0.0,0.0,0.0,0.0,0.0,0.0,0.0,0.0,0.258984,-0.643536,9.817848,0.0,0.0,0.0,0.0,0.0,0.0,0.0,0.0,0.0
1372687222072110708,4336,1372687222065406028,-0.00283183017604,-0.0281462938639,0.919035718589,0.393157875208,0.0,0.0,0.0,0.0,0.0,0.0,0.0,0.0,0.0,0.0265236276579,0.00944632608951,0.010197932748,0.0,0.0,0.0,0.0,0.0,0.0,0.0,0.0,0.0,0.243288,-0.557208,9.841392,0.0,0.0,0.0,0.0,0.0,0.0,0.0,0.0,0.0
1372687222164188512,4337,1372687222163407334,-0.00431077898439,-0.0264968859336,0.919297618108,0.392646433272,0.0,0.0,0.0,0.0,0.0,0.0,0.0,0.0,0.0,0.0184952729489,0.0394649869207,0.0115945731382,0.0,0.0,0.0,0.0,0.0,0.0,0.0,0.0,0.0,0.219744,-0.533664,9.794304,0.0,0.0,0.0,0.0,0.0,0.0,0.0,0.0,0.0
1372687222267949209,4338,1372687222261447649,-0.00590002007663,-0.0254544642547,0.919727548424,0.39168673284,0.0,0.0,0.0,0.0,0.0,0.0,0.0,0.0,0.0,0.00767129880977,0.0398149847554,0.023456385185,0.0,0.0,0.0,0.0,0.0,0.0,0.0,0.0,0.0,0.172656,-0.572904,9.778608,0.0,0.0,0.0,0.0,0.0,0.0,0.0,0.0,0.0
1372687222359414552,4339,1372687222359436496,-0.00768793342787,-0.0243570815929,0.920321508608,0.390328001877,0.0,0.0,0.0,0.0,0.0,0.0,0.0,0.0,0.0,0.00645091968073,0.0406857402922,0.0302627554727,0.0,0.0,0.0,0.0,0.0,0.0,0.0,0.0,0.0,0.164808,-0.541512,9.755064,0.0,0.0,0.0,0.0,0.0,0.0,0.0,0.0,0.0
1372687222463440908,4340,1372687222457434593,-0.00891716217929,-0.0233246409847,0.920799647114,0.389235732194,0.0,0.0,0.0,0.0,0.0,0.0,0.0,0.0,0.0,0.0101185790084,0.0324849285035,0.0259033739325,0.0,0.0,0.0,0.0,0.0,0.0,0.0,0.0,0.0,0.094176,-0.494424,9.794304,0.0,0.0,0.0,0.0,0.0,0.0,0.0,0.0,0.0
1372687222556228964,4341,1372687222555411449,-0.0106579740188,-0.0223171311559,0.921451404844,0.387705638026,0.0,0.0,0.0,0.0,0.0,0.0,0.0,0.0,0.0,0.00505555416683,0.0384182640103,0.0332310421366,0.0,0.0,0.0,0.0,0.0,0.0,0.0,0.0,0.0,0.070632,-0.517968,9.794304,0.0,0.0,0.0,0.0,0.0,0.0,0.0,0.0,0.0
1372687222659478472,4342,1372687222653382793,-0.0112939048878,-0.0216631742096,0.922046139675,0.386308258914,0.0,0.0,0.0,0.0,0.0,0.0,0.0,0.0,0.0,0.00784747703901,0.0181677989461,0.0335741868939,0.0,0.0,0.0,0.0,0.0,0.0,0.0,0.0,0.0,0.133416,-0.517968,9.755064,0.0,0.0,0.0,0.0,0.0,0.0,0.0,0.0,0.0
1372687222751993087,4343,1372687222751601843,-0.00942214606682,-0.0216385931961,0.922862308781,0.384406234964,0.0,0.0,0.0,0.0,0.0,0.0,0.0,0.0,0.0,0.0146543859266,-0.0338399895075,0.0398585259096,0.0,0.0,0.0,0.0,0.0,0.0,0.0,0.0,0.0,0.109872,-0.502272,9.762912,0.0,0.0,0.0,0.0,0.0,0.0,0.0,0.0,0.0
1372687222854805747,4344,1372687222848436461,-0.00577532800937,-0.0219859533588,0.923573887808,0.382746047923,0.0,0.0,0.0,0.0,0.0,0.0,0.0,0.0,0.0,0.0237283170743,-0.0757292460897,0.0381075034276,0.0,0.0,0.0,0.0,0.0,0.0,0.0,0.0,0.0,0.204048,-0.51012,9.786456,0.0,0.0,0.0,0.0,0.0,0.0,0.0,0.0,0.0
1372687222947157125,4345,1372687222946383806,-0.000853875886431,-0.0224737953502,0.924268004576,0.381081166073,0.0,0.0,0.0,0.0,0.0,0.0,0.0,0.0,0.0,0.0282678384168,-0.0928286833296,0.033226924471,0.0,0.0,0.0,0.0,0.0,0.0,0.0,0.0,0.0,0.204048,-0.455184,9.794304,0.0,0.0,0.0,0.0,0.0,0.0,0.0,0.0,0.0
1372687223049356485,4346,1372687223044473435,0.00285240902119,-0.022782076426,0.924791955047,0.379779779131,0.0,0.0,0.0,0.0,0.0,0.0,0.0,0.0,0.0,0.0252971294347,-0.0776412493663,0.028518846793,0.0,0.0,0.0,0.0,0.0,0.0,0.0,0.0,0.0,0.219744,-0.494424,9.802152,0.0,0.0,0.0,0.0,0.0,0.0,0.0,0.0,0.0
1372687223144005161,4347,1372687223141460700,0.00467552636024,-0.0223780773551,0.925387504202,0.378332298614,0.0,0.0,0.0,0.0,0.0,0.0,0.0,0.0,0.0,0.0212816704355,-0.0296468938049,0.02904104735,0.0,0.0,0.0,0.0,0.0,0.0,0.0,0.0,0.0,0.290376,-0.494424,9.786456,0.0,0.0,0.0,0.0,0.0,0.0,0.0,0.0,0.0
1372687223249481568,4348,1372687223240393591,0.00421825378282,-0.021504021281,0.925913758202,0.377098787822,0.0,0.0,0.0,0.0,0.0,0.0,0.0,0.0,0.0,0.0143011472821,0.0153839091619,0.0279967416556,0.0,0.0,0.0,0.0,0.0,0.0,0.0,0.0,0.0,0.251136,-0.47088,9.81,0.0,0.0,0.0,0.0,0.0,0.0,0.0,0.0,0.0
1372687223342231817,4349,1372687223338419771,0.00132904028164,-0.0198324873612,0.926477050604,0.375825998039,0.0,0.0,0.0,0.0,0.0,0.0,0.0,0.0,0.0,0.0108108850205,0.0708837095144,0.0307901143687,0.0,0.0,0.0,0.0,0.0,0.0,0.0,0.0,0.0,0.211896,-0.455184,9.802152,0.0,0.0,0.0,0.0,0.0,0.0,0.0,0.0,0.0
1372687223444664575,4350,1372687223436440408,-0.00307969787241,-0.0179202776294,0.927022603313,0.374564376387,0.0,0.0,0.0,0.0,0.0,0.0,0.0,0.0,0.0,0.00313000856412,0.0935731278629,0.0285175422713,0.0,0.0,0.0,0.0,0.0,0.0,0.0,0.0,0.0,0.11772,-0.478728,9.825696,0.0,0.0,0.0,0.0,0.0,0.0,0.0,0.0,0.0
1372687223537370714,4351,1372687223534432233,-0.00799669779407,-0.0160074593457,0.927385352322,0.373679304173,0.0,0.0,0.0,0.0,0.0,0.0,0.0,0.0,0.0,-0.000708737632253,0.102992267441,0.0206612063464,0.0,0.0,0.0,0.0,0.0,0.0,0.0,0.0,0.0,0.11772,-0.463032,9.857088,0.0,0.0,0.0,0.0,0.0,0.0,0.0,0.0,0.0
1372687223629904320,4352,1372687223632443006,-0.01148682145,-0.0151940401406,0.927621286997,0.373036113515,0.0,0.0,0.0,0.0,0.0,0.0,0.0,0.0,0.0,-0.0115274212233,0.0771602869127,0.0171621064413,0.0,0.0,0.0,0.0,0.0,0.0,0.0,0.0,0.0,0.070632,-0.43164,9.802152,0.0,0.0,0.0,0.0,0.0,0.0,0.0,0.0,0.0
1372687223733415077,4353,1372687223730429388,-0.0129687792904,-0.0150768441491,0.927778122355,0.372602006455,0.0,0.0,0.0,0.0,0.0,0.0,0.0,0.0,0.0,-0.00838483245101,0.0282883331391,0.0105270635561,0.0,0.0,0.0,0.0,0.0,0.0,0.0,0.0,0.0,0.094176,-0.423792,9.84924,0.0,0.0,0.0,0.0,0.0,0.0,0.0,0.0,0.0
1372687223826485014,4354,1372687223828438792,-0.0118019051762,-0.0162276225663,0.927929730438,0.372214715815,0.0,0.0,0.0,0.0,0.0,0.0,0.0,0.0,0.0,-0.013272897998,-0.0320934338156,0.00878984166795,0.0,0.0,0.0,0.0,0.0,0.0,0.0,0.0,0.0,0.007848,-0.455184,9.84924,0.0,0.0,0.0,0.0,0.0,0.0,0.0,0.0,0.0
1372687223928850482,4355,1372687223926430596,-0.00972305113935,-0.0177403318882,0.92783053382,0.372453008328,0.0,0.0,0.0,0.0,0.0,0.0,0.0,0.0,0.0,-0.0122224358222,-0.0483224375022,-0.00586739527991,0.0,0.0,0.0,0.0,0.0,0.0,0.0,0.0,0.0,0.007848,-0.408096,9.841392,0.0,0.0,0.0,0.0,0.0,0.0,0.0,0.0,0.0
1372687224032037413,4356,1372687224024438557,-0.00806603895659,-0.0189872352305,0.927764494184,0.372595581354,0.0,0.0,0.0,0.0,0.0,0.0,0.0,0.0,0.0,-0.0115245599132,-0.0425647771581,-0.0041215338496,0.0,0.0,0.0,0.0,0.0,0.0,0.0,0.0,0.0,0.07848,-0.423792,9.857088,0.0,0.0,0.0,0.0,0.0,0.0,0.0,0.0,0.0
1372687224124579981,4357,1372687224122420232,-0.00696236373094,-0.0203919547936,0.927481598344,0.373247342126,0.0,0.0,0.0,0.0,0.0,0.0,0.0,0.0,0.0,-0.0171113334523,-0.0299916834354,-0.014590282686,0.0,0.0,0.0,0.0,0.0,0.0,0.0,0.0,0.0,-0.015696,-0.47088,9.817848,0.0,0.0,0.0,0.0,0.0,0.0,0.0,0.0,0.0
1372687224227568503,4358,1372687224221150337,-0.00812086419467,-0.0211201148651,0.927269437814,0.373710291547,0.0,0.0,0.0,0.0,0.0,0.0,0.0,0.0,0.0,-0.0233970232853,0.0178248019235,-0.0104050993505,0.0,0.0,0.0,0.0,0.0,0.0,0.0,0.0,0.0,0.062784,-0.533664,9.825696,0.0,0.0,0.0,0.0,0.0,0.0,0.0,0.0,0.0
1372687224319432603,4359,1372687224318382019,-0.00992299807283,-0.0213748303482,0.9268632872,0.374658641402,0.0,0.0,0.0,0.0,0.0,0.0,0.0,0.0,0.0,-0.0174623339361,0.0314404357442,-0.0196522623193,0.0,0.0,0.0,0.0,0.0,0.0,0.0,0.0,0.0,-0.007848,-0.541512,9.833544,0.0,0.0,0.0,0.0,0.0,0.0,0.0,0.0,0.0
1372687224423052022,4360,1372687224416398460,-0.013613496155,-0.0213019395683,0.926434348243,0.375606574075,0.0,0.0,0.0,0.0,0.0,0.0,0.0,0.0,0.0,-0.0249675766375,0.0677363140169,-0.0184331059268,0.0,0.0,0.0,0.0,0.0,0.0,0.0,0.0,0.0,0.054936,-0.572904,9.833544,0.0,0.0,0.0,0.0,0.0,0.0,0.0,0.0,0.0
1372687224518236069,4361,1372687224514404068,-0.0157812958416,-0.0210692023389,0.925970376273,0.376677450452,0.0,0.0,0.0,0.0,0.0,0.0,0.0,0.0,0.0,-0.0136213975489,0.050979795754,-0.0255952901702,0.0,0.0,0.0,0.0,0.0,0.0,0.0,0.0,0.0,0.03924,-0.557208,9.77076,0.0,0.0,0.0,0.0,0.0,0.0,0.0,0.0,0.0
1372687224621715856,4362,1372687224612446924,-0.0154241746454,-0.0215371860991,0.925317553056,0.378266665803,0.0,0.0,0.0,0.0,0.0,0.0,0.0,0.0,0.0,-0.00524419220466,-0.00801368241114,-0.0325803532438,0.0,0.0,0.0,0.0,0.0,0.0,0.0,0.0,0.0,0.07848,-0.572904,9.841392,0.0,0.0,0.0,0.0,0.0,0.0,0.0,0.0,0.0
1372687224713400066,4363,1372687224710357539,-0.0128229625117,-0.0218496580479,0.924583633036,0.380135856763,0.0,0.0,0.0,0.0,0.0,0.0,0.0,0.0,0.0,0.0160459861439,-0.053386822012,-0.0442721491486,0.0,0.0,0.0,0.0,0.0,0.0,0.0,0.0,0.0,0.03924,-0.604296,9.833544,0.0,0.0,0.0,0.0,0.0,0.0,0.0,0.0,0.0
1372687224807245871,4364,1372687224808548303,-0.00951592574311,-0.0223665346179,0.923880665691,0.381907974319,0.0,0.0,0.0,0.0,0.0,0.0,0.0,0.0,0.0,0.0155240502724,-0.0614127880797,-0.0383282062896,0.0,0.0,0.0,0.0,0.0,0.0,0.0,0.0,0.0,0.047088,-0.557208,9.81,0.0,0.0,0.0,0.0,0.0,0.0,0.0,0.0,0.0
1372687224909805667,4365,1372687224906377717,-0.00652059166932,-0.0221771908526,0.923316097141,0.383344543264,0.0,0.0,0.0,0.0,0.0,0.0,0.0,0.0,0.0,0.0289636803711,-0.0570516916939,-0.0344941118506,0.0,0.0,0.0,0.0,0.0,0.0,0.0,0.0,0.0,0.141264,-0.517968,9.778608,0.0,0.0,0.0,0.0,0.0,0.0,0.0,0.0,0.0
1372687225003400348,4366,1372687225004390836,-0.00373140040369,-0.0213717411431,0.923015264853,0.384151202237,0.0,0.0,0.0,0.0,0.0,0.0,0.0,0.0,0.0,0.035419437577,-0.0430863999861,-0.0177349377281,0.0,0.0,0.0,0.0,0.0,0.0,0.0,0.0,0.0,0.133416,-0.517968,9.762912,0.0,0.0,0.0,0.0,0.0,0.0,0.0,0.0,0.0
1372687225107342674,4367,1372687225102391090,-0.0023700877403,-0.020447744739,0.922860020633,0.384585042269,0.0,0.0,0.0,0.0,0.0,0.0,0.0,0.0,0.0,0.0296631719113,-0.0188265713271,-0.010405294983,0.0,0.0,0.0,0.0,0.0,0.0,0.0,0.0,0.0,0.15696,-0.439488,9.841392,0.0,0.0,0.0,0.0,0.0,0.0,0.0,0.0,0.0
1372687225209785635,4368,1372687225200389659,-0.00153570151741,-0.0189914765956,0.922766506101,0.384888218391,0.0,0.0,0.0,0.0,0.0,0.0,0.0,0.0,0.0,0.032803243004,-0.00398854157189,-0.00656411526341,0.0,0.0,0.0,0.0,0.0,0.0,0.0,0.0,0.0,0.109872,-0.43164,9.778608,0.0,0.0,0.0,0.0,0.0,0.0,0.0,0.0,0.0
1372687225302723786,4369,1372687225298476236,-0.00175409794722,-0.0169861244789,0.92273096685,0.385066172925,0.0,0.0,0.0,0.0,0.0,0.0,0.0,0.0,0.0,0.0383881711576,0.0213149313637,-0.00342700974404,0.0,0.0,0.0,0.0,0.0,0.0,0.0,0.0,0.0,0.15696,-0.400248,9.841392,0.0,0.0,0.0,0.0,0.0,0.0,0.0,0.0,0.0
1372687225395406298,4370,1372687225396399919,-0.00418286917495,-0.0137061588503,0.922422123372,0.385917181697,0.0,0.0,0.0,0.0,0.0,0.0,0.0,0.0,0.0,0.0411786386481,0.0684421151226,-0.0170341334141,0.0,0.0,0.0,0.0,0.0,0.0,0.0,0.0,0.0,0.023544,-0.3924,9.739368,0.0,0.0,0.0,0.0,0.0,0.0,0.0,0.0,0.0
1372687225497897085,4371,1372687225494433828,-0.00759642686316,-0.0103736716058,0.92188493501,0.387250368415,0.0,0.0,0.0,0.0,0.0,0.0,0.0,0.0,0.0,0.0387355277624,0.0977534166227,-0.0292631886655,0.0,0.0,0.0,0.0,0.0,0.0,0.0,0.0,0.0,0.109872,-0.35316,9.833544,0.0,0.0,0.0,0.0,0.0,0.0,0.0,0.0,0.0
1372687225599917099,4372,1372687225592518269,-0.00941217905969,-0.00741486885284,0.921071978235,0.389207966922,0.0,0.0,0.0,0.0,0.0,0.0,0.0,0.0,0.0,0.0401329953095,0.0565628479987,-0.0397387514917,0.0,0.0,0.0,0.0,0.0,0.0,0.0,0.0,0.0,0.070632,-0.290376,9.833544,0.0,0.0,0.0,0.0,0.0,0.0,0.0,0.0,0.0
1372687225692193887,4373,1372687225690397179,-0.00929745299482,-0.00508478457254,0.920262949101,0.391157010476,0.0,0.0,0.0,0.0,0.0,0.0,0.0,0.0,0.0,0.0478160362751,0.0186906079267,-0.0442760558063,0.0,0.0,0.0,0.0,0.0,0.0,0.0,0.0,0.0,0.031392,-0.188352,9.841392,0.0,0.0,0.0,0.0,0.0,0.0,0.0,0.0,0.0
1372687225795592071,4374,1372687225788380854,-0.00826864276349,-0.00320722693638,0.919467866797,0.393065115687,0.0,0.0,0.0,0.0,0.0,0.0,0.0,0.0,0.0,0.0411883573029,-0.00312457406311,-0.0395566122981,0.0,0.0,0.0,0.0,0.0,0.0,0.0,0.0,0.0,0.007848,-0.062784,9.81,0.0,0.0,0.0,0.0,0.0,0.0,0.0,0.0,0.0
1372687225887653712,4375,1372687225886399995,-0.00760600185236,-0.000853853796679,0.918932385845,0.394340829631,0.0,0.0,0.0,0.0,0.0,0.0,0.0,0.0,0.0,0.047124655151,0.00699838338582,-0.0264674551002,0.0,0.0,0.0,0.0,0.0,0.0,0.0,0.0,0.0,0.0,0.023544,9.802152,0.0,0.0,0.0,0.0,0.0,0.0,0.0,0.0,0.0
1372687225980029386,4376,1372687225983451935,-0.00747956619154,0.00151141728462,0.918587347057,0.395144350248,0.0,0.0,0.0,0.0,0.0,0.0,0.0,0.0,0.0,0.047821570248,0.01868958182,-0.0177464386264,0.0,0.0,0.0,0.0,0.0,0.0,0.0,0.0,0.0,0.023544,0.047088,9.802152,0.0,0.0,0.0,0.0,0.0,0.0,0.0,0.0,0.0
1372687226082410396,4377,1372687226080448636,-0.00700691914978,0.00404664826708,0.918388435242,0.395597282266,0.0,0.0,0.0,0.0,0.0,0.0,0.0,0.0,0.0,0.049213396446,0.0115383095956,-0.00832436877076,0.0,0.0,0.0,0.0,0.0,0.0,0.0,0.0,0.0,-0.070632,0.015696,9.794304,0.0,0.0,0.0,0.0,0.0,0.0,0.0,0.0,0.0
1372687226185954624,4378,1372687226178388687,-0.00631946392781,0.00642158719624,0.918243485345,0.39591379013,0.0,0.0,0.0,0.0,0.0,0.0,0.0,0.0,0.0,0.0528770860827,0.00734670886754,-0.00588240233487,0.0,0.0,0.0,0.0,0.0,0.0,0.0,0.0,0.0,-0.031392,0.03924,9.857088,0.0,0.0,0.0,0.0,0.0,0.0,0.0,0.0,0.0
1372687226279452244,4379,1372687226276492060,-0.0049886363893,0.00836027266766,0.918208505641,0.395977726036,0.0,0.0,0.0,0.0,0.0,0.0,0.0,0.0,0.0,0.0446724293705,-0.00801303377182,0.000396893177919,0.0,0.0,0.0,0.0,0.0,0.0,0.0,0.0,0.0,-0.007848,0.054936,9.833544,0.0,0.0,0.0,0.0,0.0,0.0,0.0,0.0,0.0
1372687226381729978,4380,1372687226374860018,-0.00272862588337,0.0094851309618,0.918213151359,0.39596362909,0.0,0.0,0.0,0.0,0.0,0.0,0.0,0.0,0.0,0.0422279343903,-0.0338516852233,0.00318083829889,0.0,0.0,0.0,0.0,0.0,0.0,0.0,0.0,0.0,0.149112,0.07848,9.864936,0.0,0.0,0.0,0.0,0.0,0.0,0.0,0.0,0.0
1372687226484112788,4381,1372687226472427886,0.00126441513559,0.0103049115392,0.918058387718,0.396309231275,0.0,0.0,0.0,0.0,0.0,0.0,0.0,0.0,0.0,0.0460664159864,-0.0649075258585,-0.00518938830122,0.0,0.0,0.0,0.0,0.0,0.0,0.0,0.0,0.0,0.015696,0.102024,9.864936,0.0,0.0,0.0,0.0,0.0,0.0,0.0,0.0,0.0
1372687226576762031,4382,1372687226569436384,0.00419941698723,0.0110182383012,0.917737636341,0.397012083147,0.0,0.0,0.0,0.0,0.0,0.0,0.0,0.0,0.0,0.0394383386401,-0.0523351763254,-0.0153031908511,0.0,0.0,0.0,0.0,0.0,0.0,0.0,0.0,0.0,-0.031392,0.204048,9.723672,0.0,0.0,0.0,0.0,0.0,0.0,0.0,0.0,0.0
1372687226669414242,4383,1372687226668491830,0.00803524797857,0.0120981248614,0.917229521968,0.398094303143,0.0,0.0,0.0,0.0,0.0,0.0,0.0,0.0,0.0,0.0492104511191,-0.0596749418739,-0.0212441500474,0.0,0.0,0.0,0.0,0.0,0.0,0.0,0.0,0.0,0.1962,0.227592,9.841392,0.0,0.0,0.0,0.0,0.0,0.0,0.0,0.0,0.0
1372687226772550978,4384,1372687226765473967,0.0126631695754,0.0124416685018,0.916765799199,0.399030473073,0.0,0.0,0.0,0.0,0.0,0.0,0.0,0.0,0.0,0.0467662796715,-0.0879488474786,-0.0196760164584,0.0,0.0,0.0,0.0,0.0,0.0,0.0,0.0,0.0,0.266832,0.258984,9.794304,0.0,0.0,0.0,0.0,0.0,0.0,0.0,0.0,0.0
1372687226866905753,4385,1372687226864385489,0.0198276574231,0.0119878383723,0.916337901763,0.399734919071,0.0,0.0,0.0,0.0,0.0,0.0,0.0,0.0,0.0,0.0467687519554,-0.128787795466,-0.0125184169344,0.0,0.0,0.0,0.0,0.0,0.0,0.0,0.0,0.0,0.368856,0.35316,9.833544,0.0,0.0,0.0,0.0,0.0,0.0,0.0,0.0,0.0
1372687226969053779,4386,1372687226962375856,0.0260743710699,0.0111124891003,0.916131163272,0.399875394893,0.0,0.0,0.0,0.0,0.0,0.0,0.0,0.0,0.0,0.0373401567573,-0.131752379587,-0.00134605815503,0.0,0.0,0.0,0.0,0.0,0.0,0.0,0.0,0.0,0.447336,0.321768,9.794304,0.0,0.0,0.0,0.0,0.0,0.0,0.0,0.0,0.0
1372687227061203867,4387,1372687227060386621,0.0325097789837,0.00970021199486,0.916007185032,0.399724726691,0.0,0.0,0.0,0.0,0.0,0.0,0.0,0.0,0.0,0.0253005505913,-0.126337688368,0.00459209895435,0.0,0.0,0.0,0.0,0.0,0.0,0.0,0.0,0.0,0.502272,0.400248,9.794304,0.0,0.0,0.0,0.0,0.0,0.0,0.0,0.0,0.0
1372687227162853465,4388,1372687227158353041,0.0361945447816,0.00930264826981,0.916214567593,0.398941451587,0.0,0.0,0.0,0.0,0.0,0.0,0.0,0.0,0.0,0.0251239395485,-0.0771166838803,0.0192541408304,0.0,0.0,0.0,0.0,0.0,0.0,0.0,0.0,0.0,0.525816,0.384552,9.73152,0.0,0.0,0.0,0.0,0.0,0.0,0.0,0.0,0.0
1372687227256144969,4389,1372687227255458155,0.0371729610007,0.00948364714774,0.916580799861,0.398004860189,0.0,0.0,0.0,0.0,0.0,0.0,0.0,0.0,0.0,0.0118577234263,-0.0156817234381,0.0197813174063,0.0,0.0,0.0,0.0,0.0,0.0,0.0,0.0,0.0,0.557208,0.361008,9.747216,0.0,0.0,0.0,0.0,0.0,0.0,0.0,0.0,0.0
1372687227358882409,4390,1372687227353450643,0.0357690834054,0.010600236373,0.917035905994,0.397055858512,0.0,0.0,0.0,0.0,0.0,0.0,0.0,0.0,0.0,0.0115060395981,0.0384164737293,0.0220480142016,0.0,0.0,0.0,0.0,0.0,0.0,0.0,0.0,0.0,0.635688,0.329616,9.739368,0.0,0.0,0.0,0.0,0.0,0.0,0.0,0.0,0.0
1372687227453100823,4391,1372687227452356579,0.0335306705378,0.0112822971822,0.917649498326,0.395812837243,0.0,0.0,0.0,0.0,0.0,0.0,0.0,0.0,0.0,-0.00367766238899,0.0457452673869,0.0265800122178,0.0,0.0,0.0,0.0,0.0,0.0,0.0,0.0,0.0,0.619992,0.345312,9.81,0.0,0.0,0.0,0.0,0.0,0.0,0.0,0.0,0.0
1372687227555788290,4392,1372687227551759397,0.0322203235175,0.0112523214442,0.918105626769,0.394863639894,0.0,0.0,0.0,0.0,0.0,0.0,0.0,0.0,0.0,-0.0104846756693,0.0272409894545,0.0234394583882,0.0,0.0,0.0,0.0,0.0,0.0,0.0,0.0,0.0,0.659232,0.329616,9.817848,0.0,0.0,0.0,0.0,0.0,0.0,0.0,0.0,0.0
1372687227649234905,4393,1372687227648384643,0.0308171339756,0.0100826575272,0.918673742527,0.393684136157,0.0,0.0,0.0,0.0,0.0,0.0,0.0,0.0,0.0,-0.0302065104297,0.0171213903038,0.0267536459223,0.0,0.0,0.0,0.0,0.0,0.0,0.0,0.0,0.0,0.580752,0.306072,9.817848,0.0,0.0,0.0,0.0,0.0,0.0,0.0,0.0,0.0
1372687227752448886,4394,1372687227746510038,0.0298596418064,0.00863585086549,0.919109256747,0.392774742101,0.0,0.0,0.0,0.0,0.0,0.0,0.0,0.0,0.0,-0.035614826725,0.00769711539594,0.0234388687244,0.0,0.0,0.0,0.0,0.0,0.0,0.0,0.0,0.0,0.565056,0.306072,9.786456,0.0,0.0,0.0,0.0,0.0,0.0,0.0,0.0,0.0
1372687227846157760,4395,1372687227844367993,0.0284520926712,0.00680190147292,0.919578791242,0.391815082989,0.0,0.0,0.0,0.0,0.0,0.0,0.0,0.0,0.0,-0.0422470618443,0.0117142963197,0.0220460405396,0.0,0.0,0.0,0.0,0.0,0.0,0.0,0.0,0.0,0.502272,0.258984,9.794304,0.0,0.0,0.0,0.0,0.0,0.0,0.0,0.0,0.0
1372687227939025333,4396,1372687227942407495,0.0269087676546,0.00464884257826,0.920112232765,0.390701658049,0.0,0.0,0.0,0.0,0.0,0.0,0.0,0.0,0.0,-0.0548107399089,0.0134560713581,0.0283297710237,0.0,0.0,0.0,0.0,0.0,0.0,0.0,0.0,0.0,0.54936,0.251136,9.794304,0.0,0.0,0.0,0.0,0.0,0.0,0.0,0.0,0.0
1372687228041235861,4397,1372687228040404900,0.0248745078303,0.00195706629283,0.920646164709,0.389599882134,0.0,0.0,0.0,0.0,0.0,0.0,0.0,0.0,0.0,-0.0635342892065,0.0167740207748,0.0251946009044,0.0,0.0,0.0,0.0,0.0,0.0,0.0,0.0,0.0,0.502272,0.23544,9.778608,0.0,0.0,0.0,0.0,0.0,0.0,0.0,0.0,0.0
1372687228146319283,4398,1372687228138367748,0.0234166813103,-0.000707033299843,0.921188632854,0.388410429624,0.0,0.0,0.0,0.0,0.0,0.0,0.0,0.0,0.0,-0.0631865537616,0.00700169865604,0.0293792486429,0.0,0.0,0.0,0.0,0.0,0.0,0.0,0.0,0.0,0.47088,0.15696,9.802152,0.0,0.0,0.0,0.0,0.0,0.0,0.0,0.0,0.0
1372687228238390894,4399,1372687228235430268,0.0216114214774,-0.00308075137276,0.921795004954,0.387062558606,0.0,0.0,0.0,0.0,0.0,0.0,0.0,0.0,0.0,-0.0619621935004,0.0167731643007,0.033568646279,0.0,0.0,0.0,0.0,0.0,0.0,0.0,0.0,0.0,0.494424,0.141264,9.786456,0.0,0.0,0.0,0.0,0.0,0.0,0.0,0.0,0.0
1372687228341532872,4400,1372687228333468605,0.0199828564219,-0.00593220614521,0.922544380737,0.385327600815,0.0,0.0,0.0,0.0,0.0,0.0,0.0,0.0,0.0,-0.0624868652922,0.00839477980313,0.0381083539958,0.0,0.0,0.0,0.0,0.0,0.0,0.0,0.0,0.0,0.502272,0.054936,9.81,0.0,0.0,0.0,0.0,0.0,0.0,0.0,0.0,0.0
1372687228435015162,4401,1372687228431518399,0.0193987566391,-0.00879775039274,0.92313974413,0.383874068721,0.0,0.0,0.0,0.0,0.0,0.0,0.0,0.0,0.0,-0.0610909347735,-0.0118480569964,0.0353157799257,0.0,0.0,0.0,0.0,0.0,0.0,0.0,0.0,0.0,0.463032,-0.007848,9.786456,0.0,0.0,0.0,0.0,0.0,0.0,0.0,0.0,0.0
1372687228537068948,4402,1372687228529395083,0.0192777478555,-0.0119556494352,0.923643377538,0.382581157423,0.0,0.0,0.0,0.0,0.0,0.0,0.0,0.0,0.0,-0.0570773096876,-0.0216177152183,0.0283352404883,0.0,0.0,0.0,0.0,0.0,0.0,0.0,0.0,0.0,0.408096,-0.07848,9.77076,0.0,0.0,0.0,0.0,0.0,0.0,0.0,0.0,0.0
1372687228628913765,4403,1372687228626418445,0.0192809604075,-0.0146062401279,0.923933261025,0.381788202394,0.0,0.0,0.0,0.0,0.0,0.0,0.0,0.0,0.0,-0.0474791711389,-0.0198756977878,0.0175156206261,0.0,0.0,0.0,0.0,0.0,0.0,0.0,0.0,0.0,0.486576,-0.149112,9.762912,0.0,0.0,0.0,0.0,0.0,0.0,0.0,0.0,0.0
1372687228732003619,4404,1372687228724417466,0.0198466498783,-0.0168938657283,0.9240754864,0.381320342002,0.0,0.0,0.0,0.0,0.0,0.0,0.0,0.0,0.0,-0.0404978366581,-0.0303439945914,0.0110598039179,0.0,0.0,0.0,0.0,0.0,0.0,0.0,0.0,0.0,0.455184,-0.188352,9.802152,0.0,0.0,0.0,0.0,0.0,0.0,0.0,0.0,0.0
1372687228826592339,4405,1372687228823119622,0.0206532806866,-0.0190660201055,0.924097060668,0.381122751012,0.0,0.0,0.0,0.0,0.0,0.0,0.0,0.0,0.0,-0.032121029014,-0.0299973485185,0.00390525579315,0.0,0.0,0.0,0.0,0.0,0.0,0.0,0.0,0.0,0.525816,-0.23544,9.715824,0.0,0.0,0.0,0.0,0.0,0.0,0.0,0.0,0.0
1372687228929071970,4406,1372687228920375929,0.0216236883572,-0.0206076842396,0.923856753066,0.381571014709,0.0,0.0,0.0,0.0,0.0,0.0,0.0,0.0,0.0,-0.0226984518567,-0.0317452182039,-0.0109308044054,0.0,0.0,0.0,0.0,0.0,0.0,0.0,0.0,0.0,0.596448,-0.290376,9.715824,0.0,0.0,0.0,0.0,0.0,0.0,0.0,0.0,0.0
1372687229021616430,4407,1372687229018388274,0.0249768690204,-0.0225068206064,0.92327937356,0.382654932542,0.0,0.0,0.0,0.0,0.0,0.0,0.0,0.0,0.0,-0.0104823575565,-0.0818380993931,-0.0271634002276,0.0,0.0,0.0,0.0,0.0,0.0,0.0,0.0,0.0,0.714168,-0.321768,9.864936,0.0,0.0,0.0,0.0,0.0,0.0,0.0,0.0,0.0
1372687229115495979,4408,1372687229116389919,0.0302704911522,-0.0248244198665,0.922555309164,0.383873868708,0.0,0.0,0.0,0.0,0.0,0.0,0.0,0.0,0.0,-0.00280085335982,-0.110635227386,-0.028902527568,0.0,0.0,0.0,0.0,0.0,0.0,0.0,0.0,0.0,0.800496,-0.290376,9.739368,0.0,0.0,0.0,0.0,0.0,0.0,0.0,0.0,0.0
1372687229218130940,4409,1372687229213447620,0.0377379912941,-0.0277530199636,0.921559192178,0.385401439033,0.0,0.0,0.0,0.0,0.0,0.0,0.0,0.0,0.0,0.00243163614492,-0.156182364322,-0.0376280375821,0.0,0.0,0.0,0.0,0.0,0.0,0.0,0.0,0.0,0.839736,-0.345312,9.6138,0.0,0.0,0.0,0.0,0.0,0.0,0.0,0.0,0.0
1372687229310842958,4410,1372687229311398378,0.0471489456257,-0.0314544520773,0.920209342576,0.387301381623,0.0,0.0,0.0,0.0,0.0,0.0,0.0,0.0,0.0,0.00243578872645,-0.217453900801,-0.0519427585893,0.0,0.0,0.0,0.0,0.0,0.0,0.0,0.0,0.0,1.247832,-0.27468,9.92772,0.0,0.0,0.0,0.0,0.0,0.0,0.0,0.0,0.0
1372687229414542212,4411,1372687229409367474,0.0561114697043,-0.0351991366683,0.918896413045,0.388898323264,0.0,0.0,0.0,0.0,0.0,0.0,0.0,0.0,0.0,-0.00106207776479,-0.208360066253,-0.0463443074389,0.0,0.0,0.0,0.0,0.0,0.0,0.0,0.0,0.0,1.106568,-0.408096,9.723672,0.0,0.0,0.0,0.0,0.0,0.0,0.0,0.0,0.0
1372687229507298551,4412,1372687229506441302,0.058415077448,-0.0360663729593,0.918161796082,0.390212521179,0.0,0.0,0.0,0.0,0.0,0.0,0.0,0.0,0.0,0.00102943728356,-0.0484875395581,-0.0316797479439,0.0,0.0,0.0,0.0,0.0,0.0,0.0,0.0,0.0,1.145808,-0.463032,9.707976,0.0,0.0,0.0,0.0,0.0,0.0,0.0,0.0,0.0
1372687229610038080,4413,1372687229605393907,0.053653902662,-0.0357522635231,0.918128958628,0.391001598093,0.0,0.0,0.0,0.0,0.0,0.0,0.0,0.0,0.0,-0.0342210381625,0.0974135746323,-0.0152689482411,0.0,0.0,0.0,0.0,0.0,0.0,0.0,0.0,0.0,1.208592,-0.423792,9.841392,0.0,0.0,0.0,0.0,0.0,0.0,0.0,0.0,0.0
1372687229702803645,4414,1372687229703399018,0.0422684701538,-0.0334657047315,0.918795080052,0.39103583456,0.0,0.0,0.0,0.0,0.0,0.0,0.0,0.0,0.0,-0.0453829846819,0.222020422485,0.00776748110425,0.0,0.0,0.0,0.0,0.0,0.0,0.0,0.0,0.0,1.145808,-0.31392,9.723672,0.0,0.0,0.0,0.0,0.0,0.0,0.0,0.0,0.0
1372687229806251564,4415,1372687229801406506,0.0294496062054,-0.0312578308769,0.919464670523,0.390820148359,0.0,0.0,0.0,0.0,0.0,0.0,0.0,0.0,0.0,-0.0570770651332,0.245754345175,0.0136960595939,0.0,0.0,0.0,0.0,0.0,0.0,0.0,0.0,0.0,0.965304,-0.376704,9.919872,0.0,0.0,0.0,0.0,0.0,0.0,0.0,0.0,0.0
1372687229898594743,4416,1372687229899877935,0.0188739406531,-0.0300611626191,0.920070515663,0.390141444958,0.0,0.0,0.0,0.0,0.0,0.0,0.0,0.0,0.0,-0.065102234887,0.222014656898,0.0238117980467,0.0,0.0,0.0,0.0,0.0,0.0,0.0,0.0,0.0,0.808344,-0.368856,9.81,0.0,0.0,0.0,0.0,0.0,0.0,0.0,0.0,0.0
1372687230001232481,4417,1372687229997445690,0.0113279955168,-0.0295671736784,0.920451423873,0.389572374595,0.0,0.0,0.0,0.0,0.0,0.0,0.0,0.0,0.0,-0.0541019661749,0.155692144381,0.0183974154848,0.0,0.0,0.0,0.0,0.0,0.0,0.0,0.0,0.0,0.66708,-0.337464,9.794304,0.0,0.0,0.0,0.0,0.0,0.0,0.0,0.0,0.0
1372687230093013724,4418,1372687230096373814,0.00564183128375,-0.0287177839821,0.920663624098,0.389258204648,0.0,0.0,0.0,0.0,0.0,0.0,0.0,0.0,0.0,-0.028618487211,0.109620880894,0.00932469454737,0.0,0.0,0.0,0.0,0.0,0.0,0.0,0.0,0.0,0.455184,-0.337464,9.755064,0.0,0.0,0.0,0.0,0.0,0.0,0.0,0.0,0.0
1372687230195289088,4419,1372687230193455995,0.00339911615953,-0.0283306863132,0.920739473281,0.38913319129,0.0,0.0,0.0,0.0,0.0,0.0,0.0,0.0,0.0,-0.0108155457567,0.0439964192864,0.00321346270243,0.0,0.0,0.0,0.0,0.0,0.0,0.0,0.0,0.0,0.415944,-0.337464,9.794304,0.0,0.0,0.0,0.0,0.0,0.0,0.0,0.0,0.0
1372687230299633417,4420,1372687230292532749,0.00403585899232,-0.0278735923791,0.920732395159,0.389176863643,0.0,0.0,0.0,0.0,0.0,0.0,0.0,0.0,0.0,0.0137888481409,-0.00801269810592,-0.00167959137619,0.0,0.0,0.0,0.0,0.0,0.0,0.0,0.0,0.0,0.400248,-0.400248,9.81,0.0,0.0,0.0,0.0,0.0,0.0,0.0,0.0,0.0
1372687230392666410,4421,1372687230391012473,0.00543830329542,-0.0267327370894,0.920729493043,0.389246690758,0.0,0.0,0.0,0.0,0.0,0.0,0.0,0.0,0.0,0.0310618894158,-0.0163837834272,-0.00272356325552,0.0,0.0,0.0,0.0,0.0,0.0,0.0,0.0,0.0,0.298224,-0.478728,9.88848,0.0,0.0,0.0,0.0,0.0,0.0,0.0,0.0,0.0
1372687230497637365,4422,1372687230488384499,0.0042475099835,-0.025016677526,0.920775571986,0.3892665803,0.0,0.0,0.0,0.0,0.0,0.0,0.0,0.0,0.0,0.024076845102,0.037888882136,0.000411244952585,0.0,0.0,0.0,0.0,0.0,0.0,0.0,0.0,0.0,0.384552,-0.51012,9.794304,0.0,0.0,0.0,0.0,0.0,0.0,0.0,0.0,0.0
1372687230591562849,4423,1372687230586382085,0.0016330552292,-0.0235610956124,0.92096140209,0.388937403401,0.0,0.0,0.0,0.0,0.0,0.0,0.0,0.0,0.0,0.00766967357555,0.0639012559217,0.0091398004685,0.0,0.0,0.0,0.0,0.0,0.0,0.0,0.0,0.0,0.211896,-0.525816,9.872784,0.0,0.0,0.0,0.0,0.0,0.0,0.0,0.0,0.0
1372687230684783816,4424,1372687230684413354,-0.00395655135259,-0.0221142592576,0.921303413092,0.388194959091,0.0,0.0,0.0,0.0,0.0,0.0,0.0,0.0,0.0,-0.0158868986059,0.109621888443,0.0180395830431,0.0,0.0,0.0,0.0,0.0,0.0,0.0,0.0,0.0,0.227592,-0.439488,9.81,0.0,0.0,0.0,0.0,0.0,0.0,0.0,0.0,0.0
1372687230786323143,4425,1372687230782394134,-0.00879049552564,-0.0205201663698,0.921497984034,0.387741041653,0.0,0.0,0.0,0.0,0.0,0.0,0.0,0.0,0.0,-0.0090772526358,0.11102343964,0.0128079575844,0.0,0.0,0.0,0.0,0.0,0.0,0.0,0.0,0.0,0.03924,-0.400248,9.77076,0.0,0.0,0.0,0.0,0.0,0.0,0.0,0.0,0.0
1372687230888831165,4426,1372687230880412689,-0.0144124487559,-0.0178100527804,0.921723992466,0.38716916852,0.0,0.0,0.0,0.0,0.0,0.0,0.0,0.0,0.0,0.00627858783586,0.121840696791,0.0150681230479,0.0,0.0,0.0,0.0,0.0,0.0,0.0,0.0,0.0,-0.007848,-0.447336,9.723672,0.0,0.0,0.0,0.0,0.0,0.0,0.0,0.0,0.0
1372687230981242189,4427,1372687230978469176,-0.0179788537369,-0.0155010604993,0.921655901878,0.387281391852,0.0,0.0,0.0,0.0,0.0,0.0,0.0,0.0,0.0,0.0165728500763,0.0911236491844,-0.000290979930087,0.0,0.0,0.0,0.0,0.0,0.0,0.0,0.0,0.0,-0.102024,-0.486576,9.77076,0.0,0.0,0.0,0.0,0.0,0.0,0.0,0.0,0.0
1372687231073446932,4428,1372687231076440648,-0.0204143772032,-0.0130518052095,0.921487033025,0.387652617108,0.0,0.0,0.0,0.0,0.0,0.0,0.0,0.0,0.0,0.0261715012211,0.0628520654677,-0.0058772310374,0.0,0.0,0.0,0.0,0.0,0.0,0.0,0.0,0.0,-0.211896,-0.47088,9.723672,0.0,0.0,0.0,0.0,0.0,0.0,0.0,0.0,0.0
1372687231177989761,4429,1372687231176204470,-0.0230599523216,-0.00988642737418,0.921191725103,0.388299243825,0.0,0.0,0.0,0.0,0.0,0.0,0.0,0.0,0.0,0.0369899125672,0.0705328311672,-0.0109416979488,0.0,0.0,0.0,0.0,0.0,0.0,0.0,0.0,0.0,-0.306072,-0.486576,9.778608,0.0,0.0,0.0,0.0,0.0,0.0,0.0,0.0,0.0
1372687231280348068,4430,1372687231273353981,-0.0253773859156,-0.00675903498358,0.920810246739,0.389125677937,0.0,0.0,0.0,0.0,0.0,0.0,0.0,0.0,0.0,0.0439716414796,0.0733237753521,-0.0168751782677,0.0,0.0,0.0,0.0,0.0,0.0,0.0,0.0,0.0,-0.345312,-0.439488,9.755064,0.0,0.0,0.0,0.0,0.0,0.0,0.0,0.0,0.0
1372687231372640168,4431,1372687231371412641,-0.0277641713461,-0.00299105843574,0.920445068773,0.389873158515,0.0,0.0,0.0,0.0,0.0,0.0,0.0,0.0,0.0,0.0561882224258,0.0799575288838,-0.0142631096306,0.0,0.0,0.0,0.0,0.0,0.0,0.0,0.0,0.0,-0.439488,-0.408096,9.81,0.0,0.0,0.0,0.0,0.0,0.0,0.0,0.0,0.0
1372687231475078385,4432,1372687231469427369,-0.0298733108372,0.00142876441934,0.920007721878,0.390757387156,0.0,0.0,0.0,0.0,0.0,0.0,0.0,0.0,0.0,0.0642189861325,0.0722745480661,-0.0153124599766,0.0,0.0,0.0,0.0,0.0,0.0,0.0,0.0,0.0,-0.447336,-0.306072,9.833544,0.0,0.0,0.0,0.0,0.0,0.0,0.0,0.0,0.0
1372687231578250774,4433,1372687231567581133,-0.0314237332266,0.00562481401652,0.919554553597,0.391663546193,0.0,0.0,0.0,0.0,0.0,0.0,0.0,0.0,0.0,0.0638718577031,0.0604037635493,-0.0151457693289,0.0,0.0,0.0,0.0,0.0,0.0,0.0,0.0,0.0,-0.455184,-0.211896,9.762912,0.0,0.0,0.0,0.0,0.0,0.0,0.0,0.0,0.0
1372687231670467660,4434,1372687231665454254,-0.0312067901655,0.00958006463896,0.919388521542,0.391993756412,0.0,0.0,0.0,0.0,0.0,0.0,0.0,0.0,0.0,0.0726047413336,0.0272417833741,-0.00309844001825,0.0,0.0,0.0,0.0,0.0,0.0,0.0,0.0,0.0,-0.47088,-0.023544,9.794304,0.0,0.0,0.0,0.0,0.0,0.0,0.0,0.0,0.0
1372687231762584843,4435,1372687231763462536,-0.0301014889132,0.0136594464173,0.919610040844,0.391439257954,0.0,0.0,0.0,0.0,0.0,0.0,0.0,0.0,0.0,0.0895401487106,0.0134545576154,0.0178446061777,0.0,0.0,0.0,0.0,0.0,0.0,0.0,0.0,0.0,-0.494424,0.149112,9.739368,0.0,0.0,0.0,0.0,0.0,0.0,0.0,0.0,0.0
1372687231864734989,4436,1372687231861418762,-0.0275750851932,0.0178660311819,0.920062917869,0.390390377403,0.0,0.0,0.0,0.0,0.0,0.0,0.0,0.0,0.0,0.0935547096526,-0.0127225382409,0.0270960134947,0.0,0.0,0.0,0.0,0.0,0.0,0.0,0.0,0.0,-0.533664,0.251136,9.778608,0.0,0.0,0.0,0.0,0.0,0.0,0.0,0.0,0.0
1372687231957996708,4437,1372687231959429706,-0.025355834368,0.0221483465544,0.920863822684,0.388428053158,0.0,0.0,0.0,0.0,0.0,0.0,0.0,0.0,0.0,0.101055963162,-0.00730951625012,0.051001726162,0.0,0.0,0.0,0.0,0.0,0.0,0.0,0.0,0.0,-0.572904,0.282528,9.841392,0.0,0.0,0.0,0.0,0.0,0.0,0.0,0.0,0.0
1372687232060000813,4438,1372687232057439187,-0.0223234030137,0.0261928137445,0.92166964175,0.386446210568,0.0,0.0,0.0,0.0,0.0,0.0,0.0,0.0,0.0,0.104374707993,-0.0254633693405,0.0523981977048,0.0,0.0,0.0,0.0,0.0,0.0,0.0,0.0,0.0,-0.51012,0.423792,9.880632,0.0,0.0,0.0,0.0,0.0,0.0,0.0,0.0,0.0
1372687232161829597,4439,1372687232156338785,-0.0184939158574,0.0301674291647,0.922446999118,0.384498940326,0.0,0.0,0.0,0.0,0.0,0.0,0.0,0.0,0.0,0.0987933795757,-0.038374042228,0.0464683533671,0.0,0.0,0.0,0.0,0.0,0.0,0.0,0.0,0.0,-0.54936,0.596448,9.857088,0.0,0.0,0.0,0.0,0.0,0.0,0.0,0.0,0.0
1372687232255122967,4440,1372687232255039273,-0.0137553942607,0.0329664496141,0.923267726776,0.382492754209,0.0,0.0,0.0,0.0,0.0,0.0,0.0,0.0,0.0,0.0834293497512,-0.0624621816516,0.0482026362136,0.0,0.0,0.0,0.0,0.0,0.0,0.0,0.0,0.0,-0.447336,0.580752,9.872784,0.0,0.0,0.0,0.0,0.0,0.0,0.0,0.0,0.0
1372687232358458126,4441,1372687232352384759,-0.00833679105891,0.0345703128212,0.923870166546,0.381050268012,0.0,0.0,0.0,0.0,0.0,0.0,0.0,0.0,0.0,0.0753934716657,-0.092830453668,0.0408691357144,0.0,0.0,0.0,0.0,0.0,0.0,0.0,0.0,0.0,-0.368856,0.525816,9.84924,0.0,0.0,0.0,0.0,0.0,0.0,0.0,0.0,0.0
1372687232451471749,4442,1372687232451253358,-0.00250369015711,0.0354545101577,0.924445696828,0.379653609047,0.0,0.0,0.0,0.0,0.0,0.0,0.0,0.0,0.0,0.0589819763755,-0.0970172799701,0.0363291581074,0.0,0.0,0.0,0.0,0.0,0.0,0.0,0.0,0.0,-0.306072,0.486576,9.84924,0.0,0.0,0.0,0.0,0.0,0.0,0.0,0.0,0.0
1372687232554780115,4443,1372687232548416282,0.00202552606015,0.035897226415,0.924786298727,0.378784355626,0.0,0.0,0.0,0.0,0.0,0.0,0.0,0.0,0.0,0.0464117806266,-0.0853240926174,0.0270752903155,0.0,0.0,0.0,0.0,0.0,0.0,0.0,0.0,0.0,-0.219744,0.463032,9.81,0.0,0.0,0.0,0.0,0.0,0.0,0.0,0.0,0.0
1372687232649591486,4444,1372687232646414228,0.00456259056531,0.0370739095268,0.925201235724,0.377633925137,0.0,0.0,0.0,0.0,0.0,0.0,0.0,0.0,0.0,0.0397791018403,-0.035232215304,0.0279498478321,0.0,0.0,0.0,0.0,0.0,0.0,0.0,0.0,0.0,-0.1962,0.494424,9.755064,0.0,0.0,0.0,0.0,0.0,0.0,0.0,0.0,0.0
1372687232741844758,4445,1372687232744403361,0.00483508479835,0.0385273322127,0.925671815207,0.376329585813,0.0,0.0,0.0,0.0,0.0,0.0,0.0,0.0,0.0,0.0321011127581,0.00804862487765,0.0335341099465,0.0,0.0,0.0,0.0,0.0,0.0,0.0,0.0,0.0,-0.149112,0.54936,9.794304,0.0,0.0,0.0,0.0,0.0,0.0,0.0,0.0,0.0
1372687232843986012,4446,1372687232842406239,0.00387534270827,0.0404930023854,0.926342375816,0.374479774145,0.0,0.0,0.0,0.0,0.0,0.0,0.0,0.0,0.0,0.0289609382596,0.0342240412929,0.0408621058591,0.0,0.0,0.0,0.0,0.0,0.0,0.0,0.0,0.0,-0.102024,0.604296,9.802152,0.0,0.0,0.0,0.0,0.0,0.0,0.0,0.0,0.0
1372687232946424432,4447,1372687232940372005,0.00284779481527,0.0419597319497,0.927062910655,0.372539435024,0.0,0.0,0.0,0.0,0.0,0.0,0.0,0.0,0.0,0.0212831464212,0.0354436761768,0.0471479273065,0.0,0.0,0.0,0.0,0.0,0.0,0.0,0.0,0.0,-0.094176,0.651384,9.802152,0.0,0.0,0.0,0.0,0.0,0.0,0.0,0.0,0.0
1372687233040387921,4448,1372687233037424202,0.00221964540404,0.0431489911246,0.928098501403,0.369819428144,0.0,0.0,0.0,0.0,0.0,0.0,0.0,0.0,0.0,0.0163981790809,0.0230511999393,0.0588356497922,0.0,0.0,0.0,0.0,0.0,0.0,0.0,0.0,0.0,-0.109872,0.70632,9.841392,0.0,0.0,0.0,0.0,0.0,0.0,0.0,0.0,0.0
1372687233132448840,4449,1372687233135406472,0.00194711131846,0.0438084081499,0.929147938036,0.367098272098,0.0,0.0,0.0,0.0,0.0,0.0,0.0,0.0,0.0,0.0101214400866,0.0139827120108,0.0660023630425,0.0,0.0,0.0,0.0,0.0,0.0,0.0,0.0,0.0,-0.219744,0.82404,9.81,0.0,0.0,0.0,0.0,0.0,0.0,0.0,0.0,0.0
1372687233236354939,4450,1372687233233409456,0.00105831489967,0.0441515497291,0.930371475979,0.363948399243,0.0,0.0,0.0,0.0,0.0,0.0,0.0,0.0,0.0,-0.00105005392597,0.0214882389226,0.0670474034159,0.0,0.0,0.0,0.0,0.0,0.0,0.0,0.0,0.0,-0.251136,0.800496,9.841392,0.0,0.0,0.0,0.0,0.0,0.0,0.0,0.0,0.0
1372687233329479818,4451,1372687233331408130,-0.00223209603519,0.0450029859566,0.93143900531,0.361097117669,0.0,0.0,0.0,0.0,0.0,0.0,0.0,0.0,0.0,-0.00943016806898,0.0754213980141,0.0653022798575,0.0,0.0,0.0,0.0,0.0,0.0,0.0,0.0,0.0,-0.35316,0.74556,9.755064,0.0,0.0,0.0,0.0,0.0,0.0,0.0,0.0,0.0
1372687233432247277,4452,1372687233429452685,-0.00823602567195,0.0462732501584,0.932379639388,0.358412000714,0.0,0.0,0.0,0.0,0.0,0.0,0.0,0.0,0.0,-0.0223430172824,0.133540140948,0.0583248807851,0.0,0.0,0.0,0.0,0.0,0.0,0.0,0.0,0.0,-0.455184,0.776952,9.802152,0.0,0.0,0.0,0.0,0.0,0.0,0.0,0.0,0.0
1372687233527121297,4453,1372687233527430751,-0.0167359365594,0.0481835846766,0.932968628654,0.356325396993,0.0,0.0,0.0,0.0,0.0,0.0,0.0,0.0,0.0,-0.025306954299,0.165831274394,0.0358157228013,0.0,0.0,0.0,0.0,0.0,0.0,0.0,0.0,0.0,-0.659232,0.816192,9.762912,0.0,0.0,0.0,0.0,0.0,0.0,0.0,0.0,0.0
1372687233629125448,4454,1372687233626347040,-0.0249107241756,0.0498979438526,0.933172240902,0.355076357745,0.0,0.0,0.0,0.0,0.0,0.0,0.0,0.0,0.0,-0.0294985189523,0.18187695478,0.022709045357,0.0,0.0,0.0,0.0,0.0,0.0,0.0,0.0,0.0,-0.659232,0.729864,9.794304,0.0,0.0,0.0,0.0,0.0,0.0,0.0,0.0,0.0
1372687233731103582,4455,1372687233724378505,-0.0318718763359,0.050758207768,0.933100125835,0.354587003443,0.0,0.0,0.0,0.0,0.0,0.0,0.0,0.0,0.0,-0.0331633819992,0.135099753043,0.00560217962264,0.0,0.0,0.0,0.0,0.0,0.0,0.0,0.0,0.0,-0.753408,0.698472,9.778608,0.0,0.0,0.0,0.0,0.0,0.0,0.0,0.0,0.0
1372687233825239274,4456,1372687233822403233,-0.035724659674,0.0499778711332,0.93285720625,0.354969567478,0.0,0.0,0.0,0.0,0.0,0.0,0.0,0.0,0.0,-0.040142634312,0.0645876774845,-0.00906094404283,0.0,0.0,0.0,0.0,0.0,0.0,0.0,0.0,0.0,-0.808344,0.690624,9.77076,0.0,0.0,0.0,0.0,0.0,0.0,0.0,0.0,0.0
1372687233919208980,4457,1372687233920350111,-0.0362524862794,0.0477605551524,0.932777985749,0.355429199577,0.0,0.0,0.0,0.0,0.0,0.0,0.0,0.0,0.0,-0.0483432133961,-0.00557229160394,-0.0078402228917,0.0,0.0,0.0,0.0,0.0,0.0,0.0,0.0,0.0,-0.839736,0.682776,9.739368,0.0,0.0,0.0,0.0,0.0,0.0,0.0,0.0,0.0
1372687234032172123,4458,1372687234018395455,-0.0352828327242,0.0452553297091,0.93279007862,0.355822632889,0.0,0.0,0.0,0.0,0.0,0.0,0.0,0.0,0.0,-0.0394404196447,-0.034543025794,-0.00469286018359,0.0,0.0,0.0,0.0,0.0,0.0,0.0,0.0,0.0,-0.831888,0.682776,9.77076,0.0,0.0,0.0,0.0,0.0,0.0,0.0,0.0,0.0
1372687234124912905,4459,1372687234116610970,-0.0333021514617,0.0426396784164,0.932879124506,0.356103023849,0.0,0.0,0.0,0.0,0.0,0.0,0.0,0.0,0.0,-0.0376995615127,-0.0593252283318,-0.0013773061837,0.0,0.0,0.0,0.0,0.0,0.0,0.0,0.0,0.0,-0.800496,0.572904,9.755064,0.0,0.0,0.0,0.0,0.0,0.0,0.0,0.0,0.0
1372687234218722792,4460,1372687234214350520,-0.031338654197,0.0396356350461,0.933070072441,0.356127989777,0.0,0.0,0.0,0.0,0.0,0.0,0.0,0.0,0.0,-0.04049729912,-0.055654852769,0.00403035722725,0.0,0.0,0.0,0.0,0.0,0.0,0.0,0.0,0.0,-0.839736,0.43164,9.747216,0.0,0.0,0.0,0.0,0.0,0.0,0.0,0.0,0.0
1372687234320444451,4461,1372687234312355781,-0.0305442287035,0.0374157146548,0.933396828875,0.355580475048,0.0,0.0,0.0,0.0,0.0,0.0,0.0,0.0,0.0,-0.0394523000713,-0.0329656237969,0.0164264928759,0.0,0.0,0.0,0.0,0.0,0.0,0.0,0.0,0.0,-0.808344,0.368856,9.778608,0.0,0.0,0.0,0.0,0.0,0.0,0.0,0.0,0.0
1372687234413924753,4462,1372687234410378886,-0.030910751869,0.0346882039818,0.933826566748,0.354695922106,0.0,0.0,0.0,0.0,0.0,0.0,0.0,0.0,0.0,-0.0521935178357,-0.0108077865117,0.0206098228391,0.0,0.0,0.0,0.0,0.0,0.0,0.0,0.0,0.0,-0.659232,0.306072,9.833544,0.0,0.0,0.0,0.0,0.0,0.0,0.0,0.0,0.0
1372687234517431557,4463,1372687234508479844,-0.0318638426678,0.0326179337783,0.934279588536,0.353613371313,0.0,0.0,0.0,0.0,0.0,0.0,0.0,0.0,0.0,-0.049573600036,0.00455417576306,0.0265490365276,0.0,0.0,0.0,0.0,0.0,0.0,0.0,0.0,0.0,-0.70632,0.298224,9.77076,0.0,0.0,0.0,0.0,0.0,0.0,0.0,0.0,0.0
1372687234610713089,4464,1372687234606378424,-0.0325702371529,0.0303009678846,0.934934382748,0.352020924026,0.0,0.0,0.0,0.0,0.0,0.0,0.0,0.0,0.0,-0.0537580040419,-0.00207791896414,0.0380723323985,0.0,0.0,0.0,0.0,0.0,0.0,0.0,0.0,0.0,-0.70632,0.329616,9.81,0.0,0.0,0.0,0.0,0.0,0.0,0.0,0.0,0.0
1372687234713132937,4465,1372687234704360919,-0.0323093006659,0.0279274393695,0.935565634869,0.350561135999,0.0,0.0,0.0,0.0,0.0,0.0,0.0,0.0,0.0,-0.0425914951654,-0.0198809633612,0.0326586693523,0.0,0.0,0.0,0.0,0.0,0.0,0.0,0.0,0.0,-0.674928,0.219744,9.825696,0.0,0.0,0.0,0.0,0.0,0.0,0.0,0.0,0.0
1372687234806966811,4466,1372687234802409654,-0.0312521821309,0.0257676694529,0.936040973709,0.349552033125,0.0,0.0,0.0,0.0,0.0,0.0,0.0,0.0,0.0,-0.0363051499795,-0.0366317426042,0.0253381714092,0.0,0.0,0.0,0.0,0.0,0.0,0.0,0.0,0.0,-0.70632,0.251136,9.786456,0.0,0.0,0.0,0.0,0.0,0.0,0.0,0.0,0.0
1372687234909694126,4467,1372687234900380592,-0.0307339676108,0.024135828618,0.936437113909,0.348652286249,0.0,0.0,0.0,0.0,0.0,0.0,0.0,0.0,0.0,-0.027227766723,-0.020223696319,0.0202807119625,0.0,0.0,0.0,0.0,0.0,0.0,0.0,0.0,0.0,-0.714168,0.258984,9.723672,0.0,0.0,0.0,0.0,0.0,0.0,0.0,0.0,0.0
1372687235001554853,4468,1372687234998378982,-0.0314418851382,0.0241655236665,0.936865204005,0.347434921748,0.0,0.0,0.0,0.0,0.0,0.0,0.0,0.0,0.0,-0.00558491126374,0.0139808520527,0.0270855388957,0.0,0.0,0.0,0.0,0.0,0.0,0.0,0.0,0.0,-0.659232,0.266832,9.739368,0.0,0.0,0.0,0.0,0.0,0.0,0.0,0.0,0.0
1372687235104885843,4469,1372687235096372213,-0.0314821566727,0.024758137294,0.936958690709,0.347137322042,0.0,0.0,0.0,0.0,0.0,0.0,0.0,0.0,0.0,0.0115133945157,0.00595086928583,0.00962921897937,0.0,0.0,0.0,0.0,0.0,0.0,0.0,0.0,0.0,-0.651384,0.180504,9.896328,0.0,0.0,0.0,0.0,0.0,0.0,0.0,0.0,0.0
1372687235198415914,4470,1372687235194391753,-0.0324325459937,0.0265931560934,0.936968571559,0.346887344709,0.0,0.0,0.0,0.0,0.0,0.0,0.0,0.0,0.0,0.0268712156682,0.0296923977407,0.00736229956867,0.0,0.0,0.0,0.0,0.0,0.0,0.0,0.0,0.0,-0.761256,0.188352,9.723672,0.0,0.0,0.0,0.0,0.0,0.0,0.0,0.0,0.0
1372687235290858891,4471,1372687235292403728,-0.0322328296658,0.02809358065,0.936942595319,0.346857850558,0.0,0.0,0.0,0.0,0.0,0.0,0.0,0.0,0.0,0.0324529308777,0.00769781617564,0.00456272171326,0.0,0.0,0.0,0.0,0.0,0.0,0.0,0.0,0.0,-0.722016,0.15696,9.833544,0.0,0.0,0.0,0.0,0.0,0.0,0.0,0.0,0.0
1372687235393641063,4472,1372687235390996894,-0.0312771110407,0.0299248713626,0.936730932162,0.347363505755,0.0,0.0,0.0,0.0,0.0,0.0,0.0,0.0,0.0,0.0450214787507,-0.00556399409313,-0.00730203154559,0.0,0.0,0.0,0.0,0.0,0.0,0.0,0.0,0.0,-0.753408,0.23544,9.747216,0.0,0.0,0.0,0.0,0.0,0.0,0.0,0.0,0.0
1372687235486392533,4473,1372687235488413508,-0.0304611872984,0.0325733469092,0.936423297973,0.348026579663,0.0,0.0,0.0,0.0,0.0,0.0,0.0,0.0,0.0,0.0547935033417,0.00298858784402,-0.00974486341951,0.0,0.0,0.0,0.0,0.0,0.0,0.0,0.0,0.0,-0.769104,0.258984,9.802152,0.0,0.0,0.0,0.0,0.0,0.0,0.0,0.0,0.0
1372687235587997112,4474,1372687235586399770,-0.0297792822014,0.0352893473941,0.935950998892,0.349089650356,0.0,0.0,0.0,0.0,0.0,0.0,0.0,0.0,0.0,0.0561893665724,0.00595409485022,-0.0184710486436,0.0,0.0,0.0,0.0,0.0,0.0,0.0,0.0,0.0,-0.74556,0.306072,9.778608,0.0,0.0,0.0,0.0,0.0,0.0,0.0,0.0,0.0
1372687235690813057,4475,1372687235684414625,-0.0291012280885,0.0376738240711,0.935615094936,0.349797363672,0.0,0.0,0.0,0.0,0.0,0.0,0.0,0.0,0.0,0.0541002558909,0.00403722504899,-0.0121889165635,0.0,0.0,0.0,0.0,0.0,0.0,0.0,0.0,0.0,-0.800496,0.439488,9.786456,0.0,0.0,0.0,0.0,0.0,0.0,0.0,0.0,0.0
1372687235783909918,4476,1372687235782424842,-0.0274830587749,0.0401799877674,0.935282494687,0.350538022467,0.0,0.0,0.0,0.0,0.0,0.0,0.0,0.0,0.0,0.056894976587,-0.011853566739,-0.0104470860354,0.0,0.0,0.0,0.0,0.0,0.0,0.0,0.0,0.0,-0.643536,0.533664,9.825696,0.0,0.0,0.0,0.0,0.0,0.0,0.0,0.0,0.0
1372687235886072711,4477,1372687235880452900,-0.0243326784295,0.0418911719364,0.935081027555,0.351107565258,0.0,0.0,0.0,0.0,0.0,0.0,0.0,0.0,0.0,0.0593363612493,-0.0505977458634,-0.00643251223859,0.0,0.0,0.0,0.0,0.0,0.0,0.0,0.0,0.0,-0.62784,0.54936,9.755064,0.0,0.0,0.0,0.0,0.0,0.0,0.0,0.0,0.0
1372687235977898616,4478,1372687235979367114,-0.0191081566516,0.0430742920408,0.935136586084,0.351139643279,0.0,0.0,0.0,0.0,0.0,0.0,0.0,0.0,0.0,0.0575926413169,-0.0872475392546,0.00735451789655,0.0,0.0,0.0,0.0,0.0,0.0,0.0,0.0,0.0,-0.580752,0.635688,9.77076,0.0,0.0,0.0,0.0,0.0,0.0,0.0,0.0,0.0
1372687236080002538,4479,1372687236077348767,-0.0133047641512,0.0441016463766,0.935290404517,0.350870185761,0.0,0.0,0.0,0.0,0.0,0.0,0.0,0.0,0.0,0.0581200042196,-0.0987642367361,0.0136412014967,0.0,0.0,0.0,0.0,0.0,0.0,0.0,0.0,0.0,-0.517968,0.761256,9.715824,0.0,0.0,0.0,0.0,0.0,0.0,0.0,0.0,0.0
1372687236182278241,4480,1372687236176097435,-0.00847620419957,0.0459140009233,0.935434372987,0.350403470755,0.0,0.0,0.0,0.0,0.0,0.0,0.0,0.0,0.0,0.0729546950638,-0.0837512303723,0.0178354463655,0.0,0.0,0.0,0.0,0.0,0.0,0.0,0.0,0.0,-0.486576,0.82404,9.739368,0.0,0.0,0.0,0.0,0.0,0.0,0.0,0.0,0.0
1372687236274681981,4481,1372687236273391065,-0.00415901216599,0.0484252591216,0.935705214846,0.349418728473,0.0,0.0,0.0,0.0,0.0,0.0,0.0,0.0,0.0,0.0753896667369,-0.0607125806579,0.0265558238109,0.0,0.0,0.0,0.0,0.0,0.0,0.0,0.0,0.0,-0.439488,0.74556,9.786456,0.0,0.0,0.0,0.0,0.0,0.0,0.0,0.0,0.0
1372687236376168323,4482,1372687236371369499,-0.00193319148918,0.0512210966954,0.93586772435,0.348603305413,0.0,0.0,0.0,0.0,0.0,0.0,0.0,0.0,0.0,0.074689696281,-0.0233614077844,0.0230675436713,0.0,0.0,0.0,0.0,0.0,0.0,0.0,0.0,0.0,-0.43164,0.7848,9.778608,0.0,0.0,0.0,0.0,0.0,0.0,0.0,0.0,0.0
1372687236467420746,4483,1372687236468404891,-0.000844413804585,0.0545279239861,0.936019246194,0.347698092064,0.0,0.0,0.0,0.0,0.0,0.0,0.0,0.0,0.0,0.0691039217665,0.00403493232525,0.0220119394857,0.0,0.0,0.0,0.0,0.0,0.0,0.0,0.0,0.0,-0.35316,0.839736,9.825696,0.0,0.0,0.0,0.0,0.0,0.0,0.0,0.0,0.0
1372687236569917854,4484,1372687236567487961,-0.000104579029532,0.0572506958163,0.936208666364,0.34675016931,0.0,0.0,0.0,0.0,0.0,0.0,0.0,0.0,0.0,0.0614231894418,0.00700383868951,0.024805126836,0.0,0.0,0.0,0.0,0.0,0.0,0.0,0.0,0.0,-0.384552,0.871128,9.77076,0.0,0.0,0.0,0.0,0.0,0.0,0.0,0.0,0.0
1372687236673795721,4485,1372687236665395592,0.000258196164452,0.0598340714281,0.936458754832,0.345636829243,0.0,0.0,0.0,0.0,0.0,0.0,0.0,0.0,0.0,0.049210096867,0.0125858716551,0.0253256529073,0.0,0.0,0.0,0.0,0.0,0.0,0.0,0.0,0.0,-0.345312,0.996696,9.762912,0.0,0.0,0.0,0.0,0.0,0.0,0.0,0.0,0.0
1372687236767466668,4486,1372687236763428440,7.78095898828e-05,0.062211127028,0.936609504789,0.344807780014,0.0,0.0,0.0,0.0,0.0,0.0,0.0,0.0,0.0,0.0464164581004,0.0227103712339,0.020960975606,0.0,0.0,0.0,0.0,0.0,0.0,0.0,0.0,0.0,-0.3924,1.02024,9.755064,0.0,0.0,0.0,0.0,0.0,0.0,0.0,0.0,0.0
1372687236859844021,4487,1372687236861425551,-0.000209033421419,0.064664659354,0.936879545941,0.343620654986,0.0,0.0,0.0,0.0,0.0,0.0,0.0,0.0,0.0,0.0427545898808,0.0241022764784,0.0261991595534,0.0,0.0,0.0,0.0,0.0,0.0,0.0,0.0,0.0,-0.329616,1.122264,9.723672,0.0,0.0,0.0,0.0,0.0,0.0,0.0,0.0,0.0
1372687236963293486,4488,1372687236960374885,-0.000197146292035,0.0670447127607,0.937234331223,0.342194061901,0.0,0.0,0.0,0.0,0.0,0.0,0.0,0.0,0.0,0.0427563745553,0.0181695664496,0.0310875390952,0.0,0.0,0.0,0.0,0.0,0.0,0.0,0.0,0.0,-0.368856,1.208592,9.786456,0.0,0.0,0.0,0.0,0.0,0.0,0.0,0.0,0.0
1372687237065428117,4489,1372687237058443440,0.000853603720798,0.068823000734,0.937511863867,0.34107795449,0.0,0.0,0.0,0.0,0.0,0.0,0.0,0.0,0.0,0.0436293998862,-0.00539526650161,0.0300349646763,0.0,0.0,0.0,0.0,0.0,0.0,0.0,0.0,0.0,-0.321768,1.239984,9.69228,0.0,0.0,0.0,0.0,0.0,0.0,0.0,0.0,0.0
1372687237158029096,4490,1372687237156406244,0.00317889591333,0.0702518130371,0.937929457023,0.339621717553,0.0,0.0,0.0,0.0,0.0,0.0,0.0,0.0,0.0,0.0408383519449,-0.0303489274007,0.0354484425659,0.0,0.0,0.0,0.0,0.0,0.0,0.0,0.0,0.0,-0.361008,1.310616,9.684432,0.0,0.0,0.0,0.0,0.0,0.0,0.0,0.0,0.0
1372687237260075927,4491,1372687237255631718,0.00558555468235,0.0711797868693,0.938298052091,0.338377016009,0.0,0.0,0.0,0.0,0.0,0.0,0.0,0.0,0.0,0.0362989461395,-0.0395998679441,0.0354450325403,0.0,0.0,0.0,0.0,0.0,0.0,0.0,0.0,0.0,-0.321768,1.33416,9.81,0.0,0.0,0.0,0.0,0.0,0.0,0.0,0.0,0.0
1372687237353425762,4492,1372687237354358461,0.00779878527113,0.0729817010581,0.93865093153,0.33696777145,0.0,0.0,0.0,0.0,0.0,0.0,0.0,0.0,0.0,0.0471161610641,-0.0258097929667,0.0338744724047,0.0,0.0,0.0,0.0,0.0,0.0,0.0,0.0,0.0,-0.321768,1.29492,9.676584,0.0,0.0,0.0,0.0,0.0,0.0,0.0,0.0,0.0
1372687237457417887,4493,1372687237452430451,0.00941300831337,0.0748114368788,0.938838054871,0.336002605515,0.0,0.0,0.0,0.0,0.0,0.0,0.0,0.0,0.0,0.0485115815921,-0.017082300553,0.0265419714557,0.0,0.0,0.0,0.0,0.0,0.0,0.0,0.0,0.0,-0.321768,1.326312,9.684432,0.0,0.0,0.0,0.0,0.0,0.0,0.0,0.0,0.0
1372687237559878374,4494,1372687237550419007,0.0117584900733,0.0767665707068,0.939021524999,0.334973442412,0.0,0.0,0.0,0.0,0.0,0.0,0.0,0.0,0.0,0.0516528915729,-0.0279060898994,0.026541733982,0.0,0.0,0.0,0.0,0.0,0.0,0.0,0.0,0.0,-0.243288,1.381248,9.739368,0.0,0.0,0.0,0.0,0.0,0.0,0.0,0.0,0.0
1372687237653534587,4495,1372687237649404055,0.0134199174794,0.0784206852851,0.938929648554,0.334785329728,0.0,0.0,0.0,0.0,0.0,0.0,0.0,0.0,0.0,0.0411821108408,-0.0188254256734,0.00769793576877,0.0,0.0,0.0,0.0,0.0,0.0,0.0,0.0,0.0,-0.298224,1.45188,9.755064,0.0,0.0,0.0,0.0,0.0,0.0,0.0,0.0,0.0
1372687237747439008,4496,1372687237747558901,0.0136695720548,0.0799864028728,0.939026169577,0.334133462864,0.0,0.0,0.0,0.0,0.0,0.0,0.0,0.0,0.0,0.0331576343793,0.00770271022143,0.0166010798958,0.0,0.0,0.0,0.0,0.0,0.0,0.0,0.0,0.0,-0.282528,1.546056,9.715824,0.0,0.0,0.0,0.0,0.0,0.0,0.0,0.0,0.0
1372687237850631447,4497,1372687237846386388,0.013077801694,0.0812899742072,0.939140823917,0.333519750613,0.0,0.0,0.0,0.0,0.0,0.0,0.0,0.0,0.0,0.0223339997008,0.0230591759517,0.0151996858824,0.0,0.0,0.0,0.0,0.0,0.0,0.0,0.0,0.0,-0.27468,1.522512,9.723672,0.0,0.0,0.0,0.0,0.0,0.0,0.0,0.0,0.0
1372687237944018307,4498,1372687237944426235,0.012056509716,0.082586568235,0.939343530233,0.33266774946,0.0,0.0,0.0,0.0,0.0,0.0,0.0,0.0,0.0,0.0169250343121,0.0289915572014,0.0179905072482,0.0,0.0,0.0,0.0,0.0,0.0,0.0,0.0,0.0,-0.27468,1.5696,9.73152,0.0,0.0,0.0,0.0,0.0,0.0,0.0,0.0,0.0
1372687238046098695,4499,1372687238043386930,0.0112643400986,0.0832936881782,0.939543369355,0.331954113175,0.0,0.0,0.0,0.0,0.0,0.0,0.0,0.0,0.0,0.00820327610576,0.0237523377106,0.0178175790847,0.0,0.0,0.0,0.0,0.0,0.0,0.0,0.0,0.0,-0.23544,1.64808,9.668736,0.0,0.0,0.0,0.0,0.0,0.0,0.0,0.0,0.0
1372687238139058647,4500,1372687238141405365,0.0104552972741,0.0837466970709,0.939708151205,0.33139971039,0.0,0.0,0.0,0.0,0.0,0.0,0.0,0.0,0.0,0.00279064292384,0.0192187925685,0.0125838475996,0.0,0.0,0.0,0.0,0.0,0.0,0.0,0.0,0.0,-0.321768,1.60884,9.637344,0.0,0.0,0.0,0.0,0.0,0.0,0.0,0.0,0.0
1372687238242021418,4501,1372687238240369578,0.00935664583025,0.0831735907463,0.94001636513,0.330702041525,0.0,0.0,0.0,0.0,0.0,0.0,0.0,0.0,0.0,-0.0178065331939,0.0185168757253,0.0164173046003,0.0,0.0,0.0,0.0,0.0,0.0,0.0,0.0,0.0,-0.290376,1.561752,9.739368,0.0,0.0,0.0,0.0,0.0,0.0,0.0,0.0,0.0
1372687238345166339,4502,1372687238338416336,0.00792878309659,0.0815873454347,0.940431324274,0.329953881305,0.0,0.0,0.0,0.0,0.0,0.0,0.0,0.0,0.0,-0.0422468701389,0.0202601255806,0.0202494496098,0.0,0.0,0.0,0.0,0.0,0.0,0.0,0.0,0.0,-0.290376,1.428336,9.77076,0.0,0.0,0.0,0.0,0.0,0.0,0.0,0.0,0.0
1372687238448291014,4503,1372687238437396024,0.00706641077731,0.0779725684007,0.941127668272,0.328860238443,0.0,0.0,0.0,0.0,0.0,0.0,0.0,0.0,0.0,-0.0719173823557,-0.00452309191998,0.0275796971685,0.0,0.0,0.0,0.0,0.0,0.0,0.0,0.0,0.0,-0.290376,1.357704,9.778608,0.0,0.0,0.0,0.0,0.0,0.0,0.0,0.0,0.0
1372687238541042417,4504,1372687238535417353,0.00715339704856,0.0726453753293,0.941962208516,0.327686856743,0.0,0.0,0.0,0.0,0.0,0.0,0.0,0.0,0.0,-0.107871311737,-0.0362876622431,0.0349110880368,0.0,0.0,0.0,0.0,0.0,0.0,0.0,0.0,0.0,-0.258984,1.263528,9.833544,0.0,0.0,0.0,0.0,0.0,0.0,0.0,0.0,0.0
1372687238632853459,4505,1372687238634713037,0.00702985817646,0.0658964296496,0.942993233809,0.326147210082,0.0,0.0,0.0,0.0,0.0,0.0,0.0,0.0,0.0,-0.126369966591,-0.0380309505873,0.0394523263334,0.0,0.0,0.0,0.0,0.0,0.0,0.0,0.0,0.0,-0.243288,1.161504,9.755064,0.0,0.0,0.0,0.0,0.0,0.0,0.0,0.0,0.0
1372687238737746229,4506,1372687238732418167,0.00582837983402,0.0589329708063,0.943996617809,0.32459716651,0.0,0.0,0.0,0.0,0.0,0.0,0.0,0.0,0.0,-0.14766065317,-0.0212724134898,0.0405044345855,0.0,0.0,0.0,0.0,0.0,0.0,0.0,0.0,0.0,-0.266832,1.067328,9.77076,0.0,0.0,0.0,0.0,0.0,0.0,0.0,0.0,0.0
1372687238830430125,4507,1372687238830393977,0.00169569345665,0.0521914609731,0.945081105439,0.32263738185,0.0,0.0,0.0,0.0,0.0,0.0,0.0,0.0,0.0,-0.150974791942,0.035975254209,0.0412116985525,0.0,0.0,0.0,0.0,0.0,0.0,0.0,0.0,0.0,-0.298224,0.957456,9.778608,0.0,0.0,0.0,0.0,0.0,0.0,0.0,0.0,0.0
1372687238935769360,4508,1372687238928417149,-0.00468208042101,0.0472891619314,0.946005513188,0.320648377987,0.0,0.0,0.0,0.0,0.0,0.0,0.0,0.0,0.0,-0.14381531276,0.0970634907986,0.0412206373275,0.0,0.0,0.0,0.0,0.0,0.0,0.0,0.0,0.0,-0.3924,0.878976,9.629496,0.0,0.0,0.0,0.0,0.0,0.0,0.0,0.0,0.0
1372687239028917626,4509,1372687239027361227,-0.0117722144268,0.0412747563937,0.946896760841,0.318660216783,0.0,0.0,0.0,0.0,0.0,0.0,0.0,0.0,0.0,-0.153588147983,0.0942584123717,0.0366753860568,0.0,0.0,0.0,0.0,0.0,0.0,0.0,0.0,0.0,-0.27468,0.761256,9.92772,0.0,0.0,0.0,0.0,0.0,0.0,0.0,0.0,0.0
1372687239131439439,4510,1372687239125462277,-0.0175796886338,0.0360563083453,0.947644757697,0.316796954509,0.0,0.0,0.0,0.0,0.0,0.0,0.0,0.0,0.0,-0.148699840746,0.0855346933523,0.0391211243087,0.0,0.0,0.0,0.0,0.0,0.0,0.0,0.0,0.0,-0.3924,0.643536,9.825696,0.0,0.0,0.0,0.0,0.0,0.0,0.0,0.0,0.0
1372687239224192590,4511,1372687239224332071,-0.0216032324973,0.0301398669768,0.948275437529,0.31527540872,0.0,0.0,0.0,0.0,0.0,0.0,0.0,0.0,0.0,-0.13474319667,0.0394579145201,0.0296902357494,0.0,0.0,0.0,0.0,0.0,0.0,0.0,0.0,0.0,-0.43164,0.3924,9.786456,0.0,0.0,0.0,0.0,0.0,0.0,0.0,0.0,0.0
1372687239327489804,4512,1372687239322476528,-0.0234856680764,0.0244112519214,0.948794273994,0.314073144046,0.0,0.0,0.0,0.0,0.0,0.0,0.0,0.0,0.0,-0.13125214129,0.00106064919931,0.0270736195726,0.0,0.0,0.0,0.0,0.0,0.0,0.0,0.0,0.0,-0.43164,0.282528,9.81,0.0,0.0,0.0,0.0,0.0,0.0,0.0,0.0,0.0
1372687239429502427,4513,1372687239420409121,-0.0232145070206,0.0185838408377,0.949290273265,0.312991540793,0.0,0.0,0.0,0.0,0.0,0.0,0.0,0.0,0.0,-0.106470199328,-0.0399494128563,0.0223678043937,0.0,0.0,0.0,0.0,0.0,0.0,0.0,0.0,0.0,-0.478728,0.149112,9.723672,0.0,0.0,0.0,0.0,0.0,0.0,0.0,0.0,0.0
1372687239522467661,4514,1372687239518349330,-0.0219839186085,0.0135530417061,0.949635024225,0.312292079868,0.0,0.0,0.0,0.0,0.0,0.0,0.0,0.0,0.0,-0.0949521513715,-0.0586252245656,0.0166096389951,0.0,0.0,0.0,0.0,0.0,0.0,0.0,0.0,0.0,-0.415944,0.047088,9.802152,0.0,0.0,0.0,0.0,0.0,0.0,0.0,0.0,0.0
1372687239624933019,4515,1372687239618126768,-0.0197866675446,0.00853638973319,0.949965591469,0.311610322137,0.0,0.0,0.0,0.0,0.0,0.0,0.0,0.0,0.0,-0.0795929533677,-0.070841614194,0.0143461624262,0.0,0.0,0.0,0.0,0.0,0.0,0.0,0.0,0.0,-0.361008,-0.023544,9.794304,0.0,0.0,0.0,0.0,0.0,0.0,0.0,0.0,0.0
1372687239718643786,4516,1372687239714378093,-0.0174330361768,0.00465861206811,0.950245286742,0.310979551754,0.0,0.0,0.0,0.0,0.0,0.0,0.0,0.0,0.0,-0.0630133109675,-0.0734579596214,0.0143518828519,0.0,0.0,0.0,0.0,0.0,0.0,0.0,0.0,0.0,-0.321768,-0.094176,9.794304,0.0,0.0,0.0,0.0,0.0,0.0,0.0,0.0,0.0
1372687239811704467,4517,1372687239811401434,-0.0140892001883,0.000610872546641,0.950542780445,0.310273337263,0.0,0.0,0.0,0.0,0.0,0.0,0.0,0.0,0.0,-0.0541133961832,-0.0858484312357,0.014698852538,0.0,0.0,0.0,0.0,0.0,0.0,0.0,0.0,0.0,-0.258984,-0.172656,9.786456,0.0,0.0,0.0,0.0,0.0,0.0,0.0,0.0,0.0
1372687239916264946,4518,1372687239909373658,-0.0109586011491,-0.00241441119869,0.950847189985,0.309457106846,0.0,0.0,0.0,0.0,0.0,0.0,0.0,0.0,0.0,-0.0363096814108,-0.0750263005942,0.0161032502416,0.0,0.0,0.0,0.0,0.0,0.0,0.0,0.0,0.0,-0.204048,-0.180504,9.73152,0.0,0.0,0.0,0.0,0.0,0.0,0.0,0.0,0.0
1372687240008169695,4519,1372687240007468565,-0.00917826233467,-0.00416798220923,0.951084281104,0.308767028134,0.0,0.0,0.0,0.0,0.0,0.0,0.0,0.0,0.0,-0.0240920315414,-0.0488462313183,0.0152349317065,0.0,0.0,0.0,0.0,0.0,0.0,0.0,0.0,0.0,-0.164808,-0.1962,9.778608,0.0,0.0,0.0,0.0,0.0,0.0,0.0,0.0,0.0
1372687240102134159,4520,1372687240105386226,-0.00831094978077,-0.00538885612518,0.951428446523,0.307710577474,0.0,0.0,0.0,0.0,0.0,0.0,0.0,0.0,0.0,-0.0192011628012,-0.0251178215013,0.0234354108879,0.0,0.0,0.0,0.0,0.0,0.0,0.0,0.0,0.0,-0.007848,-0.149112,9.802152,0.0,0.0,0.0,0.0,0.0,0.0,0.0,0.0,0.0
1372687240203959729,4521,1372687240203408111,-0.00639770997535,-0.00642250688226,0.951749301377,0.306742706583,0.0,0.0,0.0,0.0,0.0,0.0,0.0,0.0,0.0,-0.00802943858437,-0.0422149867088,0.0189068946294,0.0,0.0,0.0,0.0,0.0,0.0,0.0,0.0,0.0,-0.094176,-0.125568,9.73152,0.0,0.0,0.0,0.0,0.0,0.0,0.0,0.0,0.0
1372687240306993739,4522,1372687240301399771,-0.00580558467527,-0.00670975823417,0.951975565629,0.3060454162,0.0,0.0,0.0,0.0,0.0,0.0,0.0,0.0,0.0,-0.00209657651175,-0.0135985026239,0.0150647209087,0.0,0.0,0.0,0.0,0.0,0.0,0.0,0.0,0.0,0.031392,-0.149112,9.802152,0.0,0.0,0.0,0.0,0.0,0.0,0.0,0.0,0.0
1372687240400490749,4523,1372687240400350835,-0.00365019660595,-0.00707309572496,0.952297399781,0.305067713388,0.0,0.0,0.0,0.0,0.0,0.0,0.0,0.0,0.0,0.00644941958533,-0.0404866954344,0.0202864389933,0.0,0.0,0.0,0.0,0.0,0.0,0.0,0.0,0.0,0.266832,-0.251136,9.912024,0.0,0.0,0.0,0.0,0.0,0.0,0.0,0.0,0.0
1372687240504682626,4524,1372687240498364908,-0.000226849481612,-0.00790113823445,0.952589246414,0.30415661783,0.0,0.0,0.0,0.0,0.0,0.0,0.0,0.0,0.0,0.00558085482747,-0.0741629424932,0.0197720615715,0.0,0.0,0.0,0.0,0.0,0.0,0.0,0.0,0.0,0.188352,-0.180504,9.904176,0.0,0.0,0.0,0.0,0.0,0.0,0.0,0.0,0.0
1372687240598543921,4525,1372687240596345478,0.00459984077012,-0.00884861329053,0.953016541837,0.302754049505,0.0,0.0,0.0,0.0,0.0,0.0,0.0,0.0,0.0,0.0111648251056,-0.0943973793866,0.0267606212933,0.0,0.0,0.0,0.0,0.0,0.0,0.0,0.0,0.0,0.070632,-0.188352,9.794304,0.0,0.0,0.0,0.0,0.0,0.0,0.0,0.0,0.0
1372687240699947841,4526,1372687240694402733,0.00872374656084,-0.0097109669649,0.953279558664,0.30180734981,0.0,0.0,0.0,0.0,0.0,0.0,0.0,0.0,0.0,0.0101136598534,-0.09178520997,0.0206450983168,0.0,0.0,0.0,0.0,0.0,0.0,0.0,0.0,0.0,0.251136,-0.243288,9.880632,0.0,0.0,0.0,0.0,0.0,0.0,0.0,0.0,0.0
1372687240802521727,4527,1372687240792359468,0.00863127765337,-0.00881957140417,0.953730730544,0.300408737927,0.0,0.0,0.0,0.0,0.0,0.0,0.0,0.0,0.0,0.0164019421805,0.00665571900437,0.027986214114,0.0,0.0,0.0,0.0,0.0,0.0,0.0,0.0,0.0,0.15696,-0.133416,9.582408,0.0,0.0,0.0,0.0,0.0,0.0,0.0,0.0,0.0
1372687240896180545,4528,1372687240890383828,0.0036157851669,-0.00736108844581,0.954538559433,0.297974628166,0.0,0.0,0.0,0.0,0.0,0.0,0.0,0.0,0.0,-0.00174982031255,0.10998894314,0.0538213900284,0.0,0.0,0.0,0.0,0.0,0.0,0.0,0.0,0.0,-0.102024,-0.141264,9.707976,0.0,0.0,0.0,0.0,0.0,0.0,0.0,0.0,0.0
1372687240989318890,4529,1372687240989410613,-0.00247298838591,-0.00615045770572,0.955285708875,0.295609997492,0.0,0.0,0.0,0.0,0.0,0.0,0.0,0.0,0.0,-0.012568391485,0.120424269635,0.0489165796743,0.0,0.0,0.0,0.0,0.0,0.0,0.0,0.0,0.0,0.463032,-0.102024,10.178856,0.0,0.0,0.0,0.0,0.0,0.0,0.0,0.0,0.0
1372687241093156399,4530,1372687241087335883,-0.00257655892988,-0.00645896987478,0.955914674273,0.293562222642,0.0,0.0,0.0,0.0,0.0,0.0,0.0,0.0,0.0,-0.00715766171102,0.000367652425042,0.0450867601677,0.0,0.0,0.0,0.0,0.0,0.0,0.0,0.0,0.0,0.07848,-0.102024,9.69228,0.0,0.0,0.0,0.0,0.0,0.0,0.0,0.0,0.0
1372687241186234666,4531,1372687241185331076,-0.00496682128329,-0.00696355430744,0.956655115055,0.29109763042,0.0,0.0,0.0,0.0,0.0,0.0,0.0,0.0,0.0,-0.0233861075213,0.0412112489275,0.0492775288241,0.0,0.0,0.0,0.0,0.0,0.0,0.0,0.0,0.0,-0.015696,-0.070632,9.872784,0.0,0.0,0.0,0.0,0.0,0.0,0.0,0.0,0.0
1372687241288937980,4532,1372687241283379615,-0.00906655747389,-0.00726146597041,0.957130524863,0.289423957239,0.0,0.0,0.0,0.0,0.0,0.0,0.0,0.0,0.0,-0.0324625209919,0.0824050769229,0.0370624542961,0.0,0.0,0.0,0.0,0.0,0.0,0.0,0.0,0.0,-0.15696,-0.109872,9.778608,0.0,0.0,0.0,0.0,0.0,0.0,0.0,0.0,0.0
1372687241381806484,4533,1372687241382319175,-0.0164077773144,-0.00721199078435,0.957350870685,0.28837143137,0.0,0.0,0.0,0.0,0.0,0.0,0.0,0.0,0.0,-0.0408403511768,0.13719988394,0.0210038882276,0.0,0.0,0.0,0.0,0.0,0.0,0.0,0.0,0.0,-0.141264,-0.15696,9.84924,0.0,0.0,0.0,0.0,0.0,0.0,0.0,0.0,0.0
1372687241485448879,4534,1372687241480403353,-0.02416918091,-0.00662346991547,0.957373075926,0.287765136583,0.0,0.0,0.0,0.0,0.0,0.0,0.0,0.0,0.0,-0.0324669215703,0.14749424686,0.0126167538846,0.0,0.0,0.0,0.0,0.0,0.0,0.0,0.0,0.0,-0.227592,-0.266832,9.715824,0.0,0.0,0.0,0.0,0.0,0.0,0.0,0.0,0.0
1372687241578052663,4535,1372687241578397518,-0.028976280451,-0.00665898921083,0.957353687612,0.287384672259,0.0,0.0,0.0,0.0,0.0,0.0,0.0,0.0,0.0,-0.0307222336598,0.100540688018,0.00911862087789,0.0,0.0,0.0,0.0,0.0,0.0,0.0,0.0,0.0,-0.251136,-0.31392,9.904176,0.0,0.0,0.0,0.0,0.0,0.0,0.0,0.0,0.0
1372687241681612729,4536,1372687241677148600,-0.0312756985376,-0.00700499132623,0.957295560528,0.287329028416,0.0,0.0,0.0,0.0,0.0,0.0,0.0,0.0,0.0,-0.0188568498509,0.0413794562626,0.000921351740367,0.0,0.0,0.0,0.0,0.0,0.0,0.0,0.0,0.0,-0.3924,-0.376704,9.762912,0.0,0.0,0.0,0.0,0.0,0.0,0.0,0.0,0.0
1372687241775600231,4537,1372687241775667322,-0.0314381270049,-0.00755587839715,0.957235607752,0.287497033244,0.0,0.0,0.0,0.0,0.0,0.0,0.0,0.0,0.0,-0.0118739995966,0.000714670352773,-0.00413862563102,0.0,0.0,0.0,0.0,0.0,0.0,0.0,0.0,0.0,-0.415944,-0.361008,9.747216,0.0,0.0,0.0,0.0,0.0,0.0,0.0,0.0,0.0
1372687241878833308,4538,1372687241873361428,-0.0311880582649,-0.00807165174145,0.957102691828,0.287952410573,0.0,0.0,0.0,0.0,0.0,0.0,0.0,0.0,0.0,-0.008385033501,-0.00800580544262,-0.0104235365361,0.0,0.0,0.0,0.0,0.0,0.0,0.0,0.0,0.0,-0.51012,-0.400248,9.786456,0.0,0.0,0.0,0.0,0.0,0.0,0.0,0.0,0.0
1372687241972815010,4539,1372687241971415494,-0.0309114956919,-0.00828341708988,0.956865759249,0.288762503128,0.0,0.0,0.0,0.0,0.0,0.0,0.0,0.0,0.0,-0.00175069666087,-0.00556546519134,-0.0165289734564,0.0,0.0,0.0,0.0,0.0,0.0,0.0,0.0,0.0,-0.447336,-0.361008,9.762912,0.0,0.0,0.0,0.0,0.0,0.0,0.0,0.0,0.0
1372687242066836147,4540,1372687242069386230,-0.0310260376912,-0.00815603110695,0.956517344247,0.289905905936,0.0,0.0,0.0,0.0,0.0,0.0,0.0,0.0,0.0,0.00244166609145,0.00403360024111,-0.0257759595417,0.0,0.0,0.0,0.0,0.0,0.0,0.0,0.0,0.0,-0.447336,-0.298224,9.755064,0.0,0.0,0.0,0.0,0.0,0.0,0.0,0.0,0.0
1372687242172775127,4541,1372687242167421378,-0.0312294812358,-0.00794232680245,0.956159424127,0.291068367569,0.0,0.0,0.0,0.0,0.0,0.0,0.0,0.0,0.0,0.00314480859663,0.00630213388357,-0.0257748268595,0.0,0.0,0.0,0.0,0.0,0.0,0.0,0.0,0.0,-0.447336,-0.211896,9.778608,0.0,0.0,0.0,0.0,0.0,0.0,0.0,0.0,0.0
1372687242268173473,4542,1372687242266334021,-0.0306642506328,-0.00774659404645,0.955912414149,0.291943745418,0.0,0.0,0.0,0.0,0.0,0.0,0.0,0.0,0.0,0.00629007845124,-0.0083591651542,-0.0182635544149,0.0,0.0,0.0,0.0,0.0,0.0,0.0,0.0,0.0,-0.43164,-0.133416,9.817848,0.0,0.0,0.0,0.0,0.0,0.0,0.0,0.0,0.0
1372687242370848599,4543,1372687242364370591,-0.0292985831629,-0.00781909474011,0.955949226944,0.291961521929,0.0,0.0,0.0,0.0,0.0,0.0,0.0,0.0,0.0,0.00628876194291,-0.0282543487864,-0.00168241301583,0.0,0.0,0.0,0.0,0.0,0.0,0.0,0.0,0.0,-0.43164,-0.149112,9.817848,0.0,0.0,0.0,0.0,0.0,0.0,0.0,0.0,0.0
1372687242464810818,4544,1372687242462382453,-0.0286684994644,-0.00772866952402,0.95613820086,0.291407147581,0.0,0.0,0.0,0.0,0.0,0.0,0.0,0.0,0.0,0.00506192161177,-0.0121955087351,0.0119226781167,0.0,0.0,0.0,0.0,0.0,0.0,0.0,0.0,0.0,-0.447336,-0.23544,9.817848,0.0,0.0,0.0,0.0,0.0,0.0,0.0,0.0,0.0
1372687242560669152,4545,1372687242560399595,-0.0298954966011,-0.0070966147994,0.956517984851,0.290050412858,0.0,0.0,0.0,0.0,0.0,0.0,0.0,0.0,0.0,0.0045284357164,0.0255030342945,0.0276198590949,0.0,0.0,0.0,0.0,0.0,0.0,0.0,0.0,0.0,-0.455184,-0.423792,9.802152,0.0,0.0,0.0,0.0,0.0,0.0,0.0,0.0,0.0
1372687242664158314,4546,1372687242658377166,-0.0317833307447,-0.0063380507989,0.95685009251,0.288769024417,0.0,0.0,0.0,0.0,0.0,0.0,0.0,0.0,0.0,0.00382855550434,0.0433062552314,0.0297146012162,0.0,0.0,0.0,0.0,0.0,0.0,0.0,0.0,0.0,-0.51012,-0.447336,9.794304,0.0,0.0,0.0,0.0,0.0,0.0,0.0,0.0,0.0
1372687242758624915,4547,1372687242757325304,-0.0350789563142,-0.00563258921991,0.957035220784,0.287786947134,0.0,0.0,0.0,0.0,0.0,0.0,0.0,0.0,0.0,-0.0052462909487,0.0642488716175,0.0206353472398,0.0,0.0,0.0,0.0,0.0,0.0,0.0,0.0,0.0,-0.54936,-0.439488,9.794304,0.0,0.0,0.0,0.0,0.0,0.0,0.0,0.0,0.0
1372687242862014414,4548,1372687242855438489,-0.0379980856767,-0.00479758146847,0.95709604706,0.287228629143,0.0,0.0,0.0,0.0,0.0,0.0,0.0,0.0,0.0,-0.000707402750538,0.0656421658638,0.0140003778032,0.0,0.0,0.0,0.0,0.0,0.0,0.0,0.0,0.0,-0.557208,-0.423792,9.762912,0.0,0.0,0.0,0.0,0.0,0.0,0.0,0.0,0.0
1372687242955170894,4549,1372687242953393790,-0.040538832736,-0.00454993494407,0.957096392964,0.28688394118,0.0,0.0,0.0,0.0,0.0,0.0,0.0,0.0,0.0,-0.00977743506646,0.0488884459174,0.007028392469,0.0,0.0,0.0,0.0,0.0,0.0,0.0,0.0,0.0,-0.643536,-0.321768,9.841392,0.0,0.0,0.0,0.0,0.0,0.0,0.0,0.0,0.0
1372687243058991500,4550,1372687243052394176,-0.0435235876578,-0.0045799223277,0.957095682229,0.286448209433,0.0,0.0,0.0,0.0,0.0,0.0,0.0,0.0,0.0,-0.0198932210954,0.061452858323,0.00929851816343,0.0,0.0,0.0,0.0,0.0,0.0,0.0,0.0,0.0,-0.66708,-0.219744,9.825696,0.0,0.0,0.0,0.0,0.0,0.0,0.0,0.0,0.0
1372687243152087843,4551,1372687243151132475,-0.0463734121617,-0.00471034787461,0.957138741386,0.285854419252,0.0,0.0,0.0,0.0,0.0,0.0,0.0,0.0,0.0,-0.0191961705902,0.052725454459,0.0115668489448,0.0,0.0,0.0,0.0,0.0,0.0,0.0,0.0,0.0,-0.70632,-0.258984,9.817848,0.0,0.0,0.0,0.0,0.0,0.0,0.0,0.0,0.0
1372687243254417712,4552,1372687243247365086,-0.0479822873544,-0.00524776001475,0.957144705158,0.285559406258,0.0,0.0,0.0,0.0,0.0,0.0,0.0,0.0,0.0,-0.0219884432923,0.0310806463308,0.00598183873855,0.0,0.0,0.0,0.0,0.0,0.0,0.0,0.0,0.0,-0.690624,-0.27468,9.825696,0.0,0.0,0.0,0.0,0.0,0.0,0.0,0.0,0.0
1372687243347714756,4553,1372687243345409852,-0.0491784801322,-0.0061016577074,0.957074085192,0.285575633271,0.0,0.0,0.0,0.0,0.0,0.0,0.0,0.0,0.0,-0.0249600451646,0.0199158644018,-0.00100301550011,0.0,0.0,0.0,0.0,0.0,0.0,0.0,0.0,0.0,-0.792648,-0.376704,9.794304,0.0,0.0,0.0,0.0,0.0,0.0,0.0,0.0,0.0
1372687243450400138,4554,1372687243444325712,-0.0500201441645,-0.00749734377541,0.956937905648,0.285852444013,0.0,0.0,0.0,0.0,0.0,0.0,0.0,0.0,0.0,-0.0303724996942,0.00874369951044,-0.0064166140086,0.0,0.0,0.0,0.0,0.0,0.0,0.0,0.0,0.0,-0.761256,-0.447336,9.794304,0.0,0.0,0.0,0.0,0.0,0.0,0.0,0.0,0.0
1372687243553011064,4555,1372687243545488910,-0.050274806008,-0.00927620650216,0.95678014753,0.286283330226,0.0,0.0,0.0,0.0,0.0,0.0,0.0,0.0,0.0,-0.0338665007813,-0.00451824960307,-0.00956180175006,0.0,0.0,0.0,0.0,0.0,0.0,0.0,0.0,0.0,-0.800496,-0.54936,9.81,0.0,0.0,0.0,0.0,0.0,0.0,0.0,0.0,0.0
1372687243646096374,4556,1372687243640406143,-0.0502374457518,-0.0107890402381,0.956754141735,0.28632378163,0.0,0.0,0.0,0.0,0.0,0.0,0.0,0.0,0.0,-0.0307216158921,-0.00940695263135,-0.00170524531211,0.0,0.0,0.0,0.0,0.0,0.0,0.0,0.0,0.0,-0.761256,-0.517968,9.77076,0.0,0.0,0.0,0.0,0.0,0.0,0.0,0.0,0.0
1372687243740015473,4557,1372687243738395067,-0.0501080063948,-0.0123458817763,0.956767251534,0.286239747921,0.0,0.0,0.0,0.0,0.0,0.0,0.0,0.0,0.0,-0.0279286949003,-0.0107989924011,0.000567533906902,0.0,0.0,0.0,0.0,0.0,0.0,0.0,0.0,0.0,-0.831888,-0.533664,9.77076,0.0,0.0,0.0,0.0,0.0,0.0,0.0,0.0,0.0
1372687243842958765,4558,1372687243836409856,-0.0505424891429,-0.0133498251825,0.956760820543,0.286139775691,0.0,0.0,0.0,0.0,0.0,0.0,0.0,0.0,0.0,-0.0233912505288,0.00298856871441,0.00144182792532,0.0,0.0,0.0,0.0,0.0,0.0,0.0,0.0,0.0,-0.82404,-0.557208,9.73152,0.0,0.0,0.0,0.0,0.0,0.0,0.0,0.0,0.0
1372687243936603721,4559,1372687243934486282,-0.0514261819249,-0.0139860620665,0.956709795402,0.286122535396,0.0,0.0,0.0,0.0,0.0,0.0,0.0,0.0,0.0,-0.0167565820156,0.0132833652306,-0.000300278389803,0.0,0.0,0.0,0.0,0.0,0.0,0.0,0.0,0.0,-0.792648,-0.525816,9.739368,0.0,0.0,0.0,0.0,0.0,0.0,0.0,0.0,0.0
1372687244039675410,4560,1372687244032392680,-0.0518372982167,-0.0144402103926,0.956636177072,0.286271897949,0.0,0.0,0.0,0.0,0.0,0.0,0.0,0.0,0.0,-0.0118697150791,0.00595679612759,-0.00413677925155,0.0,0.0,0.0,0.0,0.0,0.0,0.0,0.0,0.0,-0.86328,-0.533664,9.739368,0.0,0.0,0.0,0.0,0.0,0.0,0.0,0.0,0.0
1372687244132175717,4561,1372687244131367563,-0.0518323329703,-0.0148555092034,0.956536250921,0.286585281862,0.0,0.0,0.0,0.0,0.0,0.0,0.0,0.0,0.0,-0.00767942487597,-0.00172650655421,-0.00693037612394,0.0,0.0,0.0,0.0,0.0,0.0,0.0,0.0,0.0,-0.792648,-0.517968,9.77076,0.0,0.0,0.0,0.0,0.0,0.0,0.0,0.0,0.0
1372687244235713917,4562,1372687244229375915,-0.0502900150395,-0.0154548495935,0.956480184342,0.287015189444,0.0,0.0,0.0,0.0,0.0,0.0,0.0,0.0,0.0,-0.00313644773703,-0.0348917186563,-0.0111138817057,0.0,0.0,0.0,0.0,0.0,0.0,0.0,0.0,0.0,-0.698472,-0.43164,9.747216,0.0,0.0,0.0,0.0,0.0,0.0,0.0,0.0,0.0
1372687244328148616,4563,1372687244327355469,-0.0466078730215,-0.0161857783033,0.956479991478,0.28759651016,0.0,0.0,0.0,0.0,0.0,0.0,0.0,0.0,0.0,0.00681137760737,-0.070841238939,-0.0128602646994,0.0,0.0,0.0,0.0,0.0,0.0,0.0,0.0,0.0,-0.70632,-0.439488,9.794304,0.0,0.0,0.0,0.0,0.0,0.0,0.0,0.0,0.0
1372687244431921116,4564,1372687244425352581,-0.0436534823897,-0.0161605076614,0.95646577636,0.288108365237,0.0,0.0,0.0,0.0,0.0,0.0,0.0,0.0,0.0,0.0188505414017,-0.0600157485377,-0.0121606273585,0.0,0.0,0.0,0.0,0.0,0.0,0.0,0.0,0.0,-0.722016,-0.478728,9.747216,0.0,0.0,0.0,0.0,0.0,0.0,0.0,0.0,0.0
1372687244525640911,4565,1372687244523378429,-0.042114393138,-0.0162752182497,0.956351776471,0.288708806242,0.0,0.0,0.0,0.0,0.0,0.0,0.0,0.0,0.0,0.00784894868538,-0.0317416863075,-0.0142544817052,0.0,0.0,0.0,0.0,0.0,0.0,0.0,0.0,0.0,-0.690624,-0.572904,9.778608,0.0,0.0,0.0,0.0,0.0,0.0,0.0,0.0,0.0
1372687244619096263,4566,1372687244621783220,-0.0426238336609,-0.0160310929211,0.956103373635,0.289469431525,0.0,0.0,0.0,0.0,0.0,0.0,0.0,0.0,0.0,0.00243788450664,0.0111942257276,-0.0153053673287,0.0,0.0,0.0,0.0,0.0,0.0,0.0,0.0,0.0,-0.714168,-0.5886,9.81,0.0,0.0,0.0,0.0,0.0,0.0,0.0,0.0,0.0
1372687244721988293,4567,1372687244720323919,-0.0448505783082,-0.0153627114668,0.955679240854,0.290567722436,0.0,0.0,0.0,0.0,0.0,0.0,0.0,0.0,0.0,0.00104009836344,0.0464431988179,-0.0215910049663,0.0,0.0,0.0,0.0,0.0,0.0,0.0,0.0,0.0,-0.635688,-0.619992,9.817848,0.0,0.0,0.0,0.0,0.0,0.0,0.0,0.0,0.0
1372687244823881442,4568,1372687244819969225,-0.0465389837882,-0.0153682339938,0.955188751898,0.291911610972,0.0,0.0,0.0,0.0,0.0,0.0,0.0,0.0,0.0,-0.00838411941152,0.0331777403256,-0.0270074870688,0.0,0.0,0.0,0.0,0.0,0.0,0.0,0.0,0.0,-0.643536,-0.62784,9.825696,0.0,0.0,0.0,0.0,0.0,0.0,0.0,0.0,0.0
1372687244916441395,4569,1372687244916417359,-0.0476565000652,-0.0158873953103,0.954815981637,0.292921303222,0.0,0.0,0.0,0.0,0.0,0.0,0.0,0.0,0.0,-0.0167591856876,0.0213090526573,-0.0226458671597,0.0,0.0,0.0,0.0,0.0,0.0,0.0,0.0,0.0,-0.651384,-0.604296,9.81,0.0,0.0,0.0,0.0,0.0,0.0,0.0,0.0,0.0
1372687245020266974,4570,1372687245014404553,-0.0472033987255,-0.016932966401,0.95457373227,0.293724536698,0.0,0.0,0.0,0.0,0.0,0.0,0.0,0.0,0.0,-0.0178044981653,-0.0142975545977,-0.0188020006315,0.0,0.0,0.0,0.0,0.0,0.0,0.0,0.0,0.0,-0.612144,-0.5886,9.84924,0.0,0.0,0.0,0.0,0.0,0.0,0.0,0.0,0.0
1372687245113740525,4571,1372687245113348987,-0.0454974956323,-0.0191973976933,0.954426041954,0.294333770153,0.0,0.0,0.0,0.0,0.0,0.0,0.0,0.0,0.0,-0.0317650713179,-0.0432676118859,-0.0142655942112,0.0,0.0,0.0,0.0,0.0,0.0,0.0,0.0,0.0,-0.604296,-0.580752,9.762912,0.0,0.0,0.0,0.0,0.0,0.0,0.0,0.0,0.0
1372687245215891543,4572,1372687245211337044,-0.0436387509142,-0.0213857931255,0.95440412203,0.294535361415,0.0,0.0,0.0,0.0,0.0,0.0,0.0,0.0,0.0,-0.0338563584307,-0.0519914099707,-0.00814205042922,0.0,0.0,0.0,0.0,0.0,0.0,0.0,0.0,0.0,-0.619992,-0.54936,9.817848,0.0,0.0,0.0,0.0,0.0,0.0,0.0,0.0,0.0
1372687245310958319,4573,1372687245309869917,-0.0420500425468,-0.0237746540916,0.954391162371,0.2946253026,0.0,0.0,0.0,0.0,0.0,0.0,0.0,0.0,0.0,-0.0349027069684,-0.0418668133273,-0.00517408712937,0.0,0.0,0.0,0.0,0.0,0.0,0.0,0.0,0.0,-0.604296,-0.565056,9.747216,0.0,0.0,0.0,0.0,0.0,0.0,0.0,0.0,0.0
1372687245414563371,4574,1372687245407394011,-0.0422014556006,-0.0254385194826,0.9544172124,0.294380202367,0.0,0.0,0.0,0.0,0.0,0.0,0.0,0.0,0.0,-0.0359516194777,-0.00730925466821,0.00233636804478,0.0,0.0,0.0,0.0,0.0,0.0,0.0,0.0,0.0,-0.604296,-0.619992,9.747216,0.0,0.0,0.0,0.0,0.0,0.0,0.0,0.0,0.0
1372687245506898253,4575,1372687245505404333,-0.0434197149793,-0.0262279331583,0.954469055687,0.29396538165,0.0,0.0,0.0,0.0,0.0,0.0,0.0,0.0,0.0,-0.0240894635971,0.0199186714676,0.00843280507206,0.0,0.0,0.0,0.0,0.0,0.0,0.0,0.0,0.0,-0.619992,-0.753408,9.73152,0.0,0.0,0.0,0.0,0.0,0.0,0.0,0.0,0.0
1372687245608695932,4576,1372687245603389023,-0.0459154196566,-0.0264986877172,0.954497262708,0.29346987796,0.0,0.0,0.0,0.0,0.0,0.0,0.0,0.0,0.0,-0.0198995067739,0.0453978734472,0.00966055109762,0.0,0.0,0.0,0.0,0.0,0.0,0.0,0.0,0.0,-0.62784,-0.74556,9.739368,0.0,0.0,0.0,0.0,0.0,0.0,0.0,0.0,0.0
1372687245703324912,4577,1372687245701372398,-0.0489237082206,-0.0264568823004,0.954563705285,0.292770621315,0.0,0.0,0.0,0.0,0.0,0.0,0.0,0.0,0.0,-0.0165844715747,0.0553436504302,0.0140220855858,0.0,0.0,0.0,0.0,0.0,0.0,0.0,0.0,0.0,-0.635688,-0.7848,9.747216,0.0,0.0,0.0,0.0,0.0,0.0,0.0,0.0,0.0
1372687245806940682,4578,1372687245800399438,-0.0507853290268,-0.0266492574888,0.954636065784,0.292199673742,0.0,0.0,0.0,0.0,0.0,0.0,0.0,0.0,0.0,-0.0143173149274,0.0338724378829,0.0115726582812,0.0,0.0,0.0,0.0,0.0,0.0,0.0,0.0,0.0,-0.596448,-0.839736,9.77076,0.0,0.0,0.0,0.0,0.0,0.0,0.0,0.0,0.0
1372687245901030759,4579,1372687245898325076,-0.0506039609925,-0.0270358578208,0.954809945709,0.291626934795,0.0,0.0,0.0,0.0,0.0,0.0,0.0,0.0,0.0,-0.00803257694187,-0.0066147336417,0.0133217876843,0.0,0.0,0.0,0.0,0.0,0.0,0.0,0.0,0.0,-0.659232,-0.816192,9.73152,0.0,0.0,0.0,0.0,0.0,0.0,0.0,0.0,0.0
1372687246003554600,4580,1372687245996499787,-0.0492312437421,-0.0271377421438,0.954904108705,0.29154411462,0.0,0.0,0.0,0.0,0.0,0.0,0.0,0.0,0.0,0.00593053970211,-0.0254632217453,0.000583805664558,0.0,0.0,0.0,0.0,0.0,0.0,0.0,0.0,0.0,-0.659232,-0.800496,9.762912,0.0,0.0,0.0,0.0,0.0,0.0,0.0,0.0,0.0
1372687246095225229,4581,1372687246094351028,-0.0462962489093,-0.0270188106617,0.955008820279,0.291692979684,0.0,0.0,0.0,0.0,0.0,0.0,0.0,0.0,0.0,0.0191964130639,-0.0537376315235,-0.00413053490793,0.0,0.0,0.0,0.0,0.0,0.0,0.0,0.0,0.0,-0.596448,-0.753408,9.69228,0.0,0.0,0.0,0.0,0.0,0.0,0.0,0.0,0.0
1372687246198408207,4582,1372687246192374553,-0.041511958908,-0.026748368367,0.954934349955,0.292680148512,0.0,0.0,0.0,0.0,0.0,0.0,0.0,0.0,0.0,0.0366476344376,-0.0951034772902,-0.0233342052524,0.0,0.0,0.0,0.0,0.0,0.0,0.0,0.0,0.0,-0.478728,-0.761256,9.723672,0.0,0.0,0.0,0.0,0.0,0.0,0.0,0.0,0.0
1372687246290772234,4583,1372687246290351928,-0.035699545762,-0.026169236127,0.954782261249,0.293992426973,0.0,0.0,0.0,0.0,0.0,0.0,0.0,0.0,0.0,0.0450259325373,-0.103998326192,-0.0289086771156,0.0,0.0,0.0,0.0,0.0,0.0,0.0,0.0,0.0,-0.502272,-0.698472,9.77076,0.0,0.0,0.0,0.0,0.0,0.0,0.0,0.0,0.0
1372687246393812651,4584,1372687246390722368,-0.0330480408323,-0.024928680183,0.954599643055,0.29500154132,0.0,0.0,0.0,0.0,0.0,0.0,0.0,0.0,0.0,0.0425872531765,-0.0457049605409,-0.0240167682157,0.0,0.0,0.0,0.0,0.0,0.0,0.0,0.0,0.0,-0.455184,-0.580752,9.81,0.0,0.0,0.0,0.0,0.0,0.0,0.0,0.0,0.0
1372687246485987345,4585,1372687246486418510,-0.0330531908445,-0.0233503189405,0.954384515221,0.29582502647,0.0,0.0,0.0,0.0,0.0,0.0,0.0,0.0,0.0,0.0296702786765,0.00997067488526,-0.0168626714993,0.0,0.0,0.0,0.0,0.0,0.0,0.0,0.0,0.0,-0.455184,-0.580752,9.802152,0.0,0.0,0.0,0.0,0.0,0.0,0.0,0.0,0.0
1372687246588619149,4586,1372687246585354379,-0.0349335221081,-0.0214432240284,0.954094951264,0.296686132383,0.0,0.0,0.0,0.0,0.0,0.0,0.0,0.0,0.0,0.0275760055106,0.052204001326,-0.0184364792602,0.0,0.0,0.0,0.0,0.0,0.0,0.0,0.0,0.0,-0.439488,-0.557208,9.81,0.0,0.0,0.0,0.0,0.0,0.0,0.0,0.0,0.0
1372687246681487742,4587,1372687246682367049,-0.0388281262387,-0.018971596349,0.953675179626,0.297718166913,0.0,0.0,0.0,0.0,0.0,0.0,0.0,0.0,0.0,0.0244263045617,0.0876343144383,-0.0184454903014,0.0,0.0,0.0,0.0,0.0,0.0,0.0,0.0,0.0,-0.517968,-0.690624,9.81,0.0,0.0,0.0,0.0,0.0,0.0,0.0,0.0,0.0
1372687246782814372,4588,1372687246780850659,-0.0429826978834,-0.016680268587,0.953140854654,0.298992922176,0.0,0.0,0.0,0.0,0.0,0.0,0.0,0.0,0.0,0.0223311165125,0.103688072715,-0.0261311606172,0.0,0.0,0.0,0.0,0.0,0.0,0.0,0.0,0.0,-0.54936,-0.690624,9.81,0.0,0.0,0.0,0.0,0.0,0.0,0.0,0.0,0.0
1372687246875501771,4589,1372687246878370309,-0.0457029534276,-0.0148963579047,0.952460801568,0.300845076487,0.0,0.0,0.0,0.0,0.0,0.0,0.0,0.0,0.0,0.0188442032937,0.0631917117846,-0.0357294293281,0.0,0.0,0.0,0.0,0.0,0.0,0.0,0.0,0.0,-0.525816,-0.604296,9.81,0.0,0.0,0.0,0.0,0.0,0.0,0.0,0.0,0.0
1372687246979476309,4590,1372687246977305051,-0.0471125869279,-0.0138857818442,0.951870244561,0.302540289441,0.0,0.0,0.0,0.0,0.0,0.0,0.0,0.0,0.0,0.0129135061219,0.0373628713977,-0.0362566383903,0.0,0.0,0.0,0.0,0.0,0.0,0.0,0.0,0.0,-0.5886,-0.541512,9.81,0.0,0.0,0.0,0.0,0.0,0.0,0.0,0.0,0.0
1372687247082851945,4591,1372687247074400171,-0.0474958555953,-0.0132764260126,0.951299808965,0.304296818379,0.0,0.0,0.0,0.0,0.0,0.0,0.0,0.0,0.0,0.010469014618,0.0125796154298,-0.0345111606574,0.0,0.0,0.0,0.0,0.0,0.0,0.0,0.0,0.0,-0.604296,-0.54936,9.762912,0.0,0.0,0.0,0.0,0.0,0.0,0.0,0.0,0.0
1372687247175249204,4592,1372687247172401816,-0.0453266107834,-0.0138474254416,0.950833746116,0.306053809664,0.0,0.0,0.0,0.0,0.0,0.0,0.0,0.0,0.0,0.00383682162642,-0.041701195162,-0.0359085799236,0.0,0.0,0.0,0.0,0.0,0.0,0.0,0.0,0.0,-0.541512,-0.54936,9.794304,0.0,0.0,0.0,0.0,0.0,0.0,0.0,0.0,0.0
1372687247268955709,4593,1372687247271338098,-0.0414490440724,-0.014754654117,0.950650392255,0.307128814398,0.0,0.0,0.0,0.0,0.0,0.0,0.0,0.0,0.0,0.00785222199801,-0.083064172711,-0.0243896755761,0.0,0.0,0.0,0.0,0.0,0.0,0.0,0.0,0.0,-0.486576,-0.525816,9.817848,0.0,0.0,0.0,0.0,0.0,0.0,0.0,0.0,0.0
1372687247374956376,4594,1372687247368390272,-0.0376664284387,-0.0155620636981,0.950487658859,0.308078354803,0.0,0.0,0.0,0.0,0.0,0.0,0.0,0.0,0.0,0.0090757959721,-0.0820084341902,-0.0226348976108,0.0,0.0,0.0,0.0,0.0,0.0,0.0,0.0,0.0,-0.557208,-0.478728,9.794304,0.0,0.0,0.0,0.0,0.0,0.0,0.0,0.0,0.0
1372687247468174217,4595,1372687247466410337,-0.0374126463987,-0.0156791439552,0.950257932471,0.308811139875,0.0,0.0,0.0,0.0,0.0,0.0,0.0,0.0,0.0,-0.000694142768131,-0.00417122216229,-0.0152985668695,0.0,0.0,0.0,0.0,0.0,0.0,0.0,0.0,0.0,-0.47088,-0.400248,9.762912,0.0,0.0,0.0,0.0,0.0,0.0,0.0,0.0,0.0
1372687247571805463,4596,1372687247564353749,-0.038583296726,-0.0154652979704,0.949974303155,0.309549635953,0.0,0.0,0.0,0.0,0.0,0.0,0.0,0.0,0.0,-0.00314147357283,0.0265457156461,-0.0168723696794,0.0,0.0,0.0,0.0,0.0,0.0,0.0,0.0,0.0,-0.478728,-0.47088,9.778608,0.0,0.0,0.0,0.0,0.0,0.0,0.0,0.0,0.0
1372687247663649986,4597,1372687247662415319,-0.0396515917751,-0.0148450217929,0.949653926182,0.310426798272,0.0,0.0,0.0,0.0,0.0,0.0,0.0,0.0,0.0,0.00645290970636,0.027421459707,-0.0196682506329,0.0,0.0,0.0,0.0,0.0,0.0,0.0,0.0,0.0,-0.54936,-0.54936,9.778608,0.0,0.0,0.0,0.0,0.0,0.0,0.0,0.0,0.0
1372687247768366133,4598,1372687247760372280,-0.0406177481305,-0.0141306083416,0.949132499716,0.311926309289,0.0,0.0,0.0,0.0,0.0,0.0,0.0,0.0,0.0,0.00854535981952,0.0234033499314,-0.0292718468876,0.0,0.0,0.0,0.0,0.0,0.0,0.0,0.0,0.0,-0.494424,-0.580752,9.755064,0.0,0.0,0.0,0.0,0.0,0.0,0.0,0.0,0.0
1372687247860328761,4599,1372687247858371422,-0.0405461706514,-0.0140066118045,0.948561455894,0.313673376722,0.0,0.0,0.0,0.0,0.0,0.0,0.0,0.0,0.0,0.00418871909432,0.00123904672088,-0.039742560864,0.0,0.0,0.0,0.0,0.0,0.0,0.0,0.0,0.0,-0.517968,-0.47088,9.778608,0.0,0.0,0.0,0.0,0.0,0.0,0.0,0.0,0.0
1372687247962319021,4600,1372687247956343128,-0.0398952327865,-0.0136600397626,0.947944574165,0.315630888896,0.0,0.0,0.0,0.0,0.0,0.0,0.0,0.0,0.0,0.0115204111709,-0.00835843869782,-0.0404361147108,0.0,0.0,0.0,0.0,0.0,0.0,0.0,0.0,0.0,-0.541512,-0.43164,9.73152,0.0,0.0,0.0,0.0,0.0,0.0,0.0,0.0,0.0
1372687248057961719,4601,1372687248054354593,-0.0399045277512,-0.0128981565331,0.947293333401,0.317610778653,0.0,0.0,0.0,0.0,0.0,0.0,0.0,0.0,0.0,0.0165775461608,0.00699997148399,-0.0425394061726,0.0,0.0,0.0,0.0,0.0,0.0,0.0,0.0,0.0,-0.533664,-0.502272,9.794304,0.0,0.0,0.0,0.0,0.0,0.0,0.0,0.0,0.0
1372687248150486442,4602,1372687248152532371,-0.0403322190689,-0.0120743809723,0.946730198817,0.319263922291,0.0,0.0,0.0,0.0,0.0,0.0,0.0,0.0,0.0,0.0136117751031,0.0146768588383,-0.0331112067297,0.0,0.0,0.0,0.0,0.0,0.0,0.0,0.0,0.0,-0.502272,-0.463032,9.778608,0.0,0.0,0.0,0.0,0.0,0.0,0.0,0.0,0.0
